songFileName,playLength,thisN,thisTrialN,thisRepN,trials.thisRepN,trials.thisTrialN,trials.thisN,trials.thisIndex,thisRow.t,notes,piloting,Welcome.started,text.started,Welcome.stopped,ITI.started,get_ready.started,get_ready.stopped,ITI.stopped,sound_playback.started,stimulus.started,tap.started,tap.stopped,resp.time,resp.velocity,stimulus.stopped,sound_playback.stopped,participant,session,date,expName,expVersion,psychopyVersion,expStart,
,,,,,,,,,,,True,0.08676166700024623,0.10437941700001829,1.0049694999997882,,,,,,,,,,,,,pilot2,001,2026-03-23_23h22.45.524,waltz,,2026.1.2,2026-03-23 23h22.45.728639 +0100,
,,,,,,,,,,,,,,,1.004983834000086,1.012699375000011,6.029451625001457,5.996803,,,,,,,,,pilot2,001,2026-03-23_23h22.45.524,waltz,,2026.1.2,2026-03-23 23h22.45.728639 +0100,
/Users/jellevanderwerff/workshop_2026/waltz_experiment/resources/K_Alfven_Midsomm.wav,15,0,0,0,0,0,0,0,6.029451625001457,,,,,,,,,,6.013898541999879,6.0294661253342685,6.029451625001457,7.021130167000592,10.505211917001361,49,,,pilot2,001,2026-03-23_23h22.45.524,waltz,,2026.1.2,2026-03-23 23h22.45.728639 +0100,
/Users/jellevanderwerff/workshop_2026/waltz_experiment/resources/K_Alfven_Midsomm.wav,15,0,0,0,0,0,0,0,,,,,,,,,,,,,,,10.905182500000592,33,,,pilot2,001,2026-03-23_23h22.45.524,waltz,,2026.1.2,2026-03-23 23h22.45.728639 +0100,
/Users/jellevanderwerff/workshop_2026/waltz_experiment/resources/K_Alfven_Midsomm.wav,15,0,0,0,0,0,0,0,,,,,,,,,,,,,,,11.28853062500093,17,,,pilot2,001,2026-03-23_23h22.45.524,waltz,,2026.1.2,2026-03-23 23h22.45.728639 +0100,
/Users/jellevanderwerff/workshop_2026/waltz_experiment/resources/K_Alfven_Midsomm.wav,15,0,0,0,0,0,0,0,,,,,,,,,,,,,,,11.713541375000204,110,,,pilot2,001,2026-03-23_23h22.45.524,waltz,,2026.1.2,2026-03-23 23h22.45.728639 +0100,
/Users/jellevanderwerff/workshop_2026/waltz_experiment/resources/K_Alfven_Midsomm.wav,15,0,0,0,0,0,0,0,,,,,,,,,,,,,,,12.513664542000697,32,,,pilot2,001,2026-03-23_23h22.45.524,waltz,,2026.1.2,2026-03-23 23h22.45.728639 +0100,
/Users/jellevanderwerff/workshop_2026/waltz_experiment/resources/K_Alfven_Midsomm.wav,15,0,0,0,0,0,0,0,,,,,,,,,,,,,,,12.94694866700047,119,,,pilot2,001,2026-03-23_23h22.45.524,waltz,,2026.1.2,2026-03-23 23h22.45.728639 +0100,
/Users/jellevanderwerff/workshop_2026/waltz_experiment/resources/K_Alfven_Midsomm.wav,15,0,0,0,0,0,0,0,,,,,,,,,,,,,,,13.363557042001048,17,,,pilot2,001,2026-03-23_23h22.45.524,waltz,,2026.1.2,2026-03-23 23h22.45.728639 +0100,
/Users/jellevanderwerff/workshop_2026/waltz_experiment/resources/K_Alfven_Midsomm.wav,15,0,0,0,0,0,0,0,,,,,,,,,,,,,,,13.755274042001474,15,,,pilot2,001,2026-03-23_23h22.45.524,waltz,,2026.1.2,2026-03-23 23h22.45.728639 +0100,
/Users/jellevanderwerff/workshop_2026/waltz_experiment/resources/K_Alfven_Midsomm.wav,15,0,0,0,0,0,0,0,,,,,,,,,,,,,,,14.17195379199984,92,,,pilot2,001,2026-03-23_23h22.45.524,waltz,,2026.1.2,2026-03-23 23h22.45.728639 +0100,
/Users/jellevanderwerff/workshop_2026/waltz_experiment/resources/K_Alfven_Midsomm.wav,15,0,0,0,0,0,0,0,,,,,,,,,,,,,,,14.596935084000506,10,,,pilot2,001,2026-03-23_23h22.45.524,waltz,,2026.1.2,2026-03-23 23h22.45.728639 +0100,
/Users/jellevanderwerff/workshop_2026/waltz_experiment/resources/K_Alfven_Midsomm.wav,15,0,0,0,0,0,0,0,,,,,,,,,,,,,,,14.98870212500151,14,,,pilot2,001,2026-03-23_23h22.45.524,waltz,,2026.1.2,2026-03-23 23h22.45.728639 +0100,
/Users/jellevanderwerff/workshop_2026/waltz_experiment/resources/K_Alfven_Midsomm.wav,15,0,0,0,0,0,0,0,,,,,,,,,,,,,,,15.346970334001526,81,,,pilot2,001,2026-03-23_23h22.45.524,waltz,,2026.1.2,2026-03-23 23h22.45.728639 +0100,
/Users/jellevanderwerff/workshop_2026/waltz_experiment/resources/K_Alfven_Midsomm.wav,15,0,0,0,0,0,0,0,,,,,,,,,,,,,,,15.705269250000129,7,,,pilot2,001,2026-03-23_23h22.45.524,waltz,,2026.1.2,2026-03-23 23h22.45.728639 +0100,
/Users/jellevanderwerff/workshop_2026/waltz_experiment/resources/K_Alfven_Midsomm.wav,15,0,0,0,0,0,0,0,,,,,,,,,,,,,,,16.013687209000636,6,,,pilot2,001,2026-03-23_23h22.45.524,waltz,,2026.1.2,2026-03-23 23h22.45.728639 +0100,
/Users/jellevanderwerff/workshop_2026/waltz_experiment/resources/K_Alfven_Midsomm.wav,15,0,0,0,0,0,0,0,,,,,,,,,,,,,,,16.321961917001317,84,,,pilot2,001,2026-03-23_23h22.45.524,waltz,,2026.1.2,2026-03-23 23h22.45.728639 +0100,
/Users/jellevanderwerff/workshop_2026/waltz_experiment/resources/K_Alfven_Midsomm.wav,15,0,0,0,0,0,0,0,,,,,,,,,,,,,,,16.872110334001263,14,,,pilot2,001,2026-03-23_23h22.45.524,waltz,,2026.1.2,2026-03-23 23h22.45.728639 +0100,
/Users/jellevanderwerff/workshop_2026/waltz_experiment/resources/K_Alfven_Midsomm.wav,15,0,0,0,0,0,0,0,,,,,,,,,,,,,,,17.155343084001288,48,,,pilot2,001,2026-03-23_23h22.45.524,waltz,,2026.1.2,2026-03-23 23h22.45.728639 +0100,
/Users/jellevanderwerff/workshop_2026/waltz_experiment/resources/K_Alfven_Midsomm.wav,15,0,0,0,0,0,0,0,,,,,,,,,,,,,,,17.45535487500092,16,,,pilot2,001,2026-03-23_23h22.45.524,waltz,,2026.1.2,2026-03-23 23h22.45.728639 +0100,
/Users/jellevanderwerff/workshop_2026/waltz_experiment/resources/K_Alfven_Midsomm.wav,15,0,0,0,0,0,0,0,,,,,,,,,,,,,,,18.0386822090004,74,,,pilot2,001,2026-03-23_23h22.45.524,waltz,,2026.1.2,2026-03-23 23h22.45.728639 +0100,
/Users/jellevanderwerff/workshop_2026/waltz_experiment/resources/K_Alfven_Midsomm.wav,15,0,0,0,0,0,0,0,,,,,,,,,,,,,,,18.34702429200115,8,,,pilot2,001,2026-03-23_23h22.45.524,waltz,,2026.1.2,2026-03-23 23h22.45.728639 +0100,
/Users/jellevanderwerff/workshop_2026/waltz_experiment/resources/K_Alfven_Midsomm.wav,15,0,0,0,0,0,0,0,,,,,,,,,,,,,,,18.62209783400067,6,,,pilot2,001,2026-03-23_23h22.45.524,waltz,,2026.1.2,2026-03-23 23h22.45.728639 +0100,
/Users/jellevanderwerff/workshop_2026/waltz_experiment/resources/K_Alfven_Midsomm.wav,15,0,0,0,0,0,0,0,,,,,,,,,,,,,,,18.938924584001143,79,,,pilot2,001,2026-03-23_23h22.45.524,waltz,,2026.1.2,2026-03-23 23h22.45.728639 +0100,
/Users/jellevanderwerff/workshop_2026/waltz_experiment/resources/K_Alfven_Midsomm.wav,15,0,0,0,0,0,0,0,,,,,,,,,,,,,,,19.230449917000442,10,,,pilot2,001,2026-03-23_23h22.45.524,waltz,,2026.1.2,2026-03-23 23h22.45.728639 +0100,
/Users/jellevanderwerff/workshop_2026/waltz_experiment/resources/K_Alfven_Midsomm.wav,15,0,0,0,0,0,0,0,,,,,,,,,,,,,,,19.513783209000394,11,,,pilot2,001,2026-03-23_23h22.45.524,waltz,,2026.1.2,2026-03-23 23h22.45.728639 +0100,
/Users/jellevanderwerff/workshop_2026/waltz_experiment/resources/K_Alfven_Midsomm.wav,15,0,0,0,0,0,0,0,,,,,,,,,,,,,,,19.813761209001314,86,,,pilot2,001,2026-03-23_23h22.45.524,waltz,,2026.1.2,2026-03-23 23h22.45.728639 +0100,
/Users/jellevanderwerff/workshop_2026/waltz_experiment/resources/K_Alfven_Midsomm.wav,15,0,0,0,0,0,0,0,,,,,,,,,,,,,,,20.113770417001433,13,,,pilot2,001,2026-03-23_23h22.45.524,waltz,,2026.1.2,2026-03-23 23h22.45.728639 +0100,
/Users/jellevanderwerff/workshop_2026/waltz_experiment/resources/K_Alfven_Midsomm.wav,15,0,0,0,0,0,0,0,,,,,,,,,,,,,,,20.41377895900041,13,,,pilot2,001,2026-03-23_23h22.45.524,waltz,,2026.1.2,2026-03-23 23h22.45.728639 +0100,
/Users/jellevanderwerff/workshop_2026/waltz_experiment/resources/K_Alfven_Midsomm.wav,15,0,0,0,0,0,0,0,,,,,,,,,,,,,,,20.722119709000253,50,,,pilot2,001,2026-03-23_23h22.45.524,waltz,,2026.1.2,2026-03-23 23h22.45.728639 +0100,
/Users/jellevanderwerff/workshop_2026/waltz_experiment/resources/K_Alfven_Midsomm.wav,15,0,0,0,0,0,0,0,,,,,,,21.016930792000494,21.021456834001583,26.021622666999974,26.005562917000134,,,,,,,21.021456834001583,21.01691270900119,pilot2,001,2026-03-23_23h22.45.524,waltz,,2026.1.2,2026-03-23 23h22.45.728639 +0100,
/Users/jellevanderwerff/workshop_2026/waltz_experiment/resources/K_Beethoven_SinfNr9.wav,15,1,1,0,0,1,1,1,26.021622666999974,,,,,,,,,,26.013730374999795,26.021567375666805,26.021622666999974,27.013264541999888,28.26397100000031,61,,,pilot2,001,2026-03-23_23h22.45.524,waltz,,2026.1.2,2026-03-23 23h22.45.728639 +0100,
/Users/jellevanderwerff/workshop_2026/waltz_experiment/resources/K_Beethoven_SinfNr9.wav,15,1,1,0,0,1,1,1,,,,,,,,,,,,,,,29.16393437500119,55,,,pilot2,001,2026-03-23_23h22.45.524,waltz,,2026.1.2,2026-03-23 23h22.45.728639 +0100,
/Users/jellevanderwerff/workshop_2026/waltz_experiment/resources/K_Beethoven_SinfNr9.wav,15,1,1,0,0,1,1,1,,,,,,,,,,,,,,,30.014010250000865,42,,,pilot2,001,2026-03-23_23h22.45.524,waltz,,2026.1.2,2026-03-23 23h22.45.728639 +0100,
/Users/jellevanderwerff/workshop_2026/waltz_experiment/resources/K_Beethoven_SinfNr9.wav,15,1,1,0,0,1,1,1,,,,,,,,,,,,,,,31.51403924999977,7,,,pilot2,001,2026-03-23_23h22.45.524,waltz,,2026.1.2,2026-03-23 23h22.45.728639 +0100,
/Users/jellevanderwerff/workshop_2026/waltz_experiment/resources/K_Beethoven_SinfNr9.wav,15,1,1,0,0,1,1,1,,,,,,,,,,,,,,,31.964003875000344,12,,,pilot2,001,2026-03-23_23h22.45.524,waltz,,2026.1.2,2026-03-23 23h22.45.728639 +0100,
/Users/jellevanderwerff/workshop_2026/waltz_experiment/resources/K_Beethoven_SinfNr9.wav,15,1,1,0,0,1,1,1,,,,,,,,,,,,,,,32.43065733399999,38,,,pilot2,001,2026-03-23_23h22.45.524,waltz,,2026.1.2,2026-03-23 23h22.45.728639 +0100,
/Users/jellevanderwerff/workshop_2026/waltz_experiment/resources/K_Beethoven_SinfNr9.wav,15,1,1,0,0,1,1,1,,,,,,,,,,,,,,,33.389156917000946,21,,,pilot2,001,2026-03-23_23h22.45.524,waltz,,2026.1.2,2026-03-23 23h22.45.728639 +0100,
/Users/jellevanderwerff/workshop_2026/waltz_experiment/resources/K_Beethoven_SinfNr9.wav,15,1,1,0,0,1,1,1,,,,,,,,,,,,,,,33.84747912500097,8,,,pilot2,001,2026-03-23_23h22.45.524,waltz,,2026.1.2,2026-03-23 23h22.45.728639 +0100,
/Users/jellevanderwerff/workshop_2026/waltz_experiment/resources/K_Beethoven_SinfNr9.wav,15,1,1,0,0,1,1,1,,,,,,,,,,,,,,,34.30571200000122,21,,,pilot2,001,2026-03-23_23h22.45.524,waltz,,2026.1.2,2026-03-23 23h22.45.728639 +0100,
/Users/jellevanderwerff/workshop_2026/waltz_experiment/resources/K_Beethoven_SinfNr9.wav,15,1,1,0,0,1,1,1,,,,,,,,,,,,,,,35.189070584001456,67,,,pilot2,001,2026-03-23_23h22.45.524,waltz,,2026.1.2,2026-03-23 23h22.45.728639 +0100,
/Users/jellevanderwerff/workshop_2026/waltz_experiment/resources/K_Beethoven_SinfNr9.wav,15,1,1,0,0,1,1,1,,,,,,,,,,,,,,,36.14743195900155,31,,,pilot2,001,2026-03-23_23h22.45.524,waltz,,2026.1.2,2026-03-23 23h22.45.728639 +0100,
/Users/jellevanderwerff/workshop_2026/waltz_experiment/resources/K_Beethoven_SinfNr9.wav,15,1,1,0,0,1,1,1,,,,,,,,,,,,,,,36.58909083400067,6,,,pilot2,001,2026-03-23_23h22.45.524,waltz,,2026.1.2,2026-03-23 23h22.45.728639 +0100,
/Users/jellevanderwerff/workshop_2026/waltz_experiment/resources/K_Beethoven_SinfNr9.wav,15,1,1,0,0,1,1,1,,,,,,,,,,,,,,,37.03910604200064,44,,,pilot2,001,2026-03-23_23h22.45.524,waltz,,2026.1.2,2026-03-23 23h22.45.728639 +0100,
/Users/jellevanderwerff/workshop_2026/waltz_experiment/resources/K_Beethoven_SinfNr9.wav,15,1,1,0,0,1,1,1,,,,,,,,,,,,,,,37.49751791700146,7,,,pilot2,001,2026-03-23_23h22.45.524,waltz,,2026.1.2,2026-03-23 23h22.45.728639 +0100,
/Users/jellevanderwerff/workshop_2026/waltz_experiment/resources/K_Beethoven_SinfNr9.wav,15,1,1,0,0,1,1,1,,,,,,,,,,,,,,,37.95579958400049,48,,,pilot2,001,2026-03-23_23h22.45.524,waltz,,2026.1.2,2026-03-23 23h22.45.728639 +0100,
/Users/jellevanderwerff/workshop_2026/waltz_experiment/resources/K_Beethoven_SinfNr9.wav,15,1,1,0,0,1,1,1,,,,,,,,,,,,,,,38.44744791700032,13,,,pilot2,001,2026-03-23_23h22.45.524,waltz,,2026.1.2,2026-03-23 23h22.45.728639 +0100,
/Users/jellevanderwerff/workshop_2026/waltz_experiment/resources/K_Beethoven_SinfNr9.wav,15,1,1,0,0,1,1,1,,,,,,,,,,,,,,,38.89750925000044,29,,,pilot2,001,2026-03-23_23h22.45.524,waltz,,2026.1.2,2026-03-23 23h22.45.728639 +0100,
/Users/jellevanderwerff/workshop_2026/waltz_experiment/resources/K_Beethoven_SinfNr9.wav,15,1,1,0,0,1,1,1,,,,,,,,,,,,,,,39.380908541999815,14,,,pilot2,001,2026-03-23_23h22.45.524,waltz,,2026.1.2,2026-03-23 23h22.45.728639 +0100,
/Users/jellevanderwerff/workshop_2026/waltz_experiment/resources/K_Beethoven_SinfNr9.wav,15,1,1,0,0,1,1,1,,,,,,,39.53098900000077,39.53857141700064,44.53869387499981,44.52274616700015,,,,,,,39.53857141700064,39.53097704200081,pilot2,001,2026-03-23_23h22.45.524,waltz,,2026.1.2,2026-03-23 23h22.45.728639 +0100,
/Users/jellevanderwerff/workshop_2026/waltz_experiment/resources/K_Chopin_EtuedeO.wav,15,2,2,0,0,2,2,2,44.53869387499981,,,,,,,,,,44.53249912499996,44.53871900066794,44.53869387499981,45.530362625000635,48.5144235000007,50,,,pilot2,001,2026-03-23_23h22.45.524,waltz,,2026.1.2,2026-03-23 23h22.45.728639 +0100,
/Users/jellevanderwerff/workshop_2026/waltz_experiment/resources/K_Chopin_EtuedeO.wav,15,2,2,0,0,2,2,2,,,,,,,,,,,,,,,49.406126875001064,8,,,pilot2,001,2026-03-23_23h22.45.524,waltz,,2026.1.2,2026-03-23 23h22.45.728639 +0100,
/Users/jellevanderwerff/workshop_2026/waltz_experiment/resources/K_Chopin_EtuedeO.wav,15,2,2,0,0,2,2,2,,,,,,,,,,,,,,,49.82276175000152,34,,,pilot2,001,2026-03-23_23h22.45.524,waltz,,2026.1.2,2026-03-23 23h22.45.728639 +0100,
/Users/jellevanderwerff/workshop_2026/waltz_experiment/resources/K_Chopin_EtuedeO.wav,15,2,2,0,0,2,2,2,,,,,,,,,,,,,,,50.522795542001404,7,,,pilot2,001,2026-03-23_23h22.45.524,waltz,,2026.1.2,2026-03-23 23h22.45.728639 +0100,
/Users/jellevanderwerff/workshop_2026/waltz_experiment/resources/K_Chopin_EtuedeO.wav,15,2,2,0,0,2,2,2,,,,,,,,,,,,,,,50.847852500000954,55,,,pilot2,001,2026-03-23_23h22.45.524,waltz,,2026.1.2,2026-03-23 23h22.45.728639 +0100,
/Users/jellevanderwerff/workshop_2026/waltz_experiment/resources/K_Chopin_EtuedeO.wav,15,2,2,0,0,2,2,2,,,,,,,,,,,,,,,51.181124667000404,6,,,pilot2,001,2026-03-23_23h22.45.524,waltz,,2026.1.2,2026-03-23 23h22.45.728639 +0100,
/Users/jellevanderwerff/workshop_2026/waltz_experiment/resources/K_Chopin_EtuedeO.wav,15,2,2,0,0,2,2,2,,,,,,,,,,,,,,,51.88948341700052,68,,,pilot2,001,2026-03-23_23h22.45.524,waltz,,2026.1.2,2026-03-23 23h22.45.728639 +0100,
/Users/jellevanderwerff/workshop_2026/waltz_experiment/resources/K_Chopin_EtuedeO.wav,15,2,2,0,0,2,2,2,,,,,,,,,,,,,,,52.26446883400058,8,,,pilot2,001,2026-03-23_23h22.45.524,waltz,,2026.1.2,2026-03-23 23h22.45.728639 +0100,
/Users/jellevanderwerff/workshop_2026/waltz_experiment/resources/K_Chopin_EtuedeO.wav,15,2,2,0,0,2,2,2,,,,,,,,,,,,,,,52.647957917000895,7,,,pilot2,001,2026-03-23_23h22.45.524,waltz,,2026.1.2,2026-03-23 23h22.45.728639 +0100,
/Users/jellevanderwerff/workshop_2026/waltz_experiment/resources/K_Chopin_EtuedeO.wav,15,2,2,0,0,2,2,2,,,,,,,,,,,,,,,52.94785208400026,77,,,pilot2,001,2026-03-23_23h22.45.524,waltz,,2026.1.2,2026-03-23 23h22.45.728639 +0100,
/Users/jellevanderwerff/workshop_2026/waltz_experiment/resources/K_Chopin_EtuedeO.wav,15,2,2,0,0,2,2,2,,,,,,,,,,,,,,,53.59789620900119,10,,,pilot2,001,2026-03-23_23h22.45.524,waltz,,2026.1.2,2026-03-23 23h22.45.728639 +0100,
/Users/jellevanderwerff/workshop_2026/waltz_experiment/resources/K_Chopin_EtuedeO.wav,15,2,2,0,0,2,2,2,,,,,,,,,,,,,,,54.214547084000515,14,,,pilot2,001,2026-03-23_23h22.45.524,waltz,,2026.1.2,2026-03-23 23h22.45.728639 +0100,
/Users/jellevanderwerff/workshop_2026/waltz_experiment/resources/K_Chopin_EtuedeO.wav,15,2,2,0,0,2,2,2,,,,,,,,,,,,,,,54.54791149999983,8,,,pilot2,001,2026-03-23_23h22.45.524,waltz,,2026.1.2,2026-03-23 23h22.45.728639 +0100,
/Users/jellevanderwerff/workshop_2026/waltz_experiment/resources/K_Chopin_EtuedeO.wav,15,2,2,0,0,2,2,2,,,,,,,,,,,,,,,54.8978637500004,67,,,pilot2,001,2026-03-23_23h22.45.524,waltz,,2026.1.2,2026-03-23 23h22.45.728639 +0100,
/Users/jellevanderwerff/workshop_2026/waltz_experiment/resources/K_Chopin_EtuedeO.wav,15,2,2,0,0,2,2,2,,,,,,,,,,,,,,,55.26453908400072,8,,,pilot2,001,2026-03-23_23h22.45.524,waltz,,2026.1.2,2026-03-23 23h22.45.728639 +0100,
/Users/jellevanderwerff/workshop_2026/waltz_experiment/resources/K_Chopin_EtuedeO.wav,15,2,2,0,0,2,2,2,,,,,,,,,,,,,,,55.55620729200018,8,,,pilot2,001,2026-03-23_23h22.45.524,waltz,,2026.1.2,2026-03-23 23h22.45.728639 +0100,
/Users/jellevanderwerff/workshop_2026/waltz_experiment/resources/K_Chopin_EtuedeO.wav,15,2,2,0,0,2,2,2,,,,,,,,,,,,,,,55.898089125001206,59,,,pilot2,001,2026-03-23_23h22.45.524,waltz,,2026.1.2,2026-03-23 23h22.45.728639 +0100,
/Users/jellevanderwerff/workshop_2026/waltz_experiment/resources/K_Chopin_EtuedeO.wav,15,2,2,0,0,2,2,2,,,,,,,,,,,,,,,56.572927709001306,12,,,pilot2,001,2026-03-23_23h22.45.524,waltz,,2026.1.2,2026-03-23 23h22.45.728639 +0100,
/Users/jellevanderwerff/workshop_2026/waltz_experiment/resources/K_Chopin_EtuedeO.wav,15,2,2,0,0,2,2,2,,,,,,,,,,,,,,,56.97292870900128,82,,,pilot2,001,2026-03-23_23h22.45.524,waltz,,2026.1.2,2026-03-23 23h22.45.728639 +0100,
/Users/jellevanderwerff/workshop_2026/waltz_experiment/resources/K_Chopin_EtuedeO.wav,15,2,2,0,0,2,2,2,,,,,,,,,,,,,,,57.33129320900116,13,,,pilot2,001,2026-03-23_23h22.45.524,waltz,,2026.1.2,2026-03-23 23h22.45.728639 +0100,
/Users/jellevanderwerff/workshop_2026/waltz_experiment/resources/K_Chopin_EtuedeO.wav,15,2,2,0,0,2,2,2,,,,,,,,,,,,,,,57.67292991700015,11,,,pilot2,001,2026-03-23_23h22.45.524,waltz,,2026.1.2,2026-03-23 23h22.45.728639 +0100,
/Users/jellevanderwerff/workshop_2026/waltz_experiment/resources/K_Chopin_EtuedeO.wav,15,2,2,0,0,2,2,2,,,,,,,,,,,,,,,57.998121042001,22,,,pilot2,001,2026-03-23_23h22.45.524,waltz,,2026.1.2,2026-03-23 23h22.45.728639 +0100,
/Users/jellevanderwerff/workshop_2026/waltz_experiment/resources/K_Chopin_EtuedeO.wav,15,2,2,0,0,2,2,2,,,,,,,,,,,,,,,59.03964641700077,47,,,pilot2,001,2026-03-23_23h22.45.524,waltz,,2026.1.2,2026-03-23 23h22.45.728639 +0100,
/Users/jellevanderwerff/workshop_2026/waltz_experiment/resources/K_Chopin_EtuedeO.wav,15,2,2,0,0,2,2,2,,,,,,,,,,,,,,,59.35638950000066,6,,,pilot2,001,2026-03-23_23h22.45.524,waltz,,2026.1.2,2026-03-23 23h22.45.728639 +0100,
/Users/jellevanderwerff/workshop_2026/waltz_experiment/resources/K_Chopin_EtuedeO.wav,15,2,2,0,0,2,2,2,,,,,,,59.52625258400076,59.53069437500017,64.53084883400152,64.5149969590002,,,,,,,59.53069437500017,59.52623741700154,pilot2,001,2026-03-23_23h22.45.524,waltz,,2026.1.2,2026-03-23 23h22.45.728639 +0100,
/Users/jellevanderwerff/workshop_2026/waltz_experiment/resources/K_Humperdinck_Haensel.wav,15,3,3,0,0,3,3,3,64.53084883400152,,,,,,,,,,64.52407208400109,,,,64.52409370900023,6,,,pilot2,001,2026-03-23_23h22.45.524,waltz,,2026.1.2,2026-03-23 23h22.45.728639 +0100,
/Users/jellevanderwerff/workshop_2026/waltz_experiment/resources/K_Humperdinck_Haensel.wav,15,3,3,0,0,3,3,3,,,,,,,,,,,,64.530851583668,64.53084883400152,65.52249883400145,68.76488879200042,20,,,pilot2,001,2026-03-23_23h22.45.524,waltz,,2026.1.2,2026-03-23 23h22.45.728639 +0100,
/Users/jellevanderwerff/workshop_2026/waltz_experiment/resources/K_Humperdinck_Haensel.wav,15,3,3,0,0,3,3,3,,,,,,,,,,,,,,,69.72324483400007,43,,,pilot2,001,2026-03-23_23h22.45.524,waltz,,2026.1.2,2026-03-23 23h22.45.728639 +0100,
/Users/jellevanderwerff/workshop_2026/waltz_experiment/resources/K_Humperdinck_Haensel.wav,15,3,3,0,0,3,3,3,,,,,,,,,,,,,,,70.74828495900147,14,,,pilot2,001,2026-03-23_23h22.45.524,waltz,,2026.1.2,2026-03-23 23h22.45.728639 +0100,
/Users/jellevanderwerff/workshop_2026/waltz_experiment/resources/K_Humperdinck_Haensel.wav,15,3,3,0,0,3,3,3,,,,,,,,,,,,,,,71.08157541699984,78,,,pilot2,001,2026-03-23_23h22.45.524,waltz,,2026.1.2,2026-03-23 23h22.45.728639 +0100,
/Users/jellevanderwerff/workshop_2026/waltz_experiment/resources/K_Humperdinck_Haensel.wav,15,3,3,0,0,3,3,3,,,,,,,,,,,,,,,71.41491833400141,6,,,pilot2,001,2026-03-23_23h22.45.524,waltz,,2026.1.2,2026-03-23 23h22.45.728639 +0100,
/Users/jellevanderwerff/workshop_2026/waltz_experiment/resources/K_Humperdinck_Haensel.wav,15,3,3,0,0,3,3,3,,,,,,,,,,,,,,,71.7733261250014,35,,,pilot2,001,2026-03-23_23h22.45.524,waltz,,2026.1.2,2026-03-23 23h22.45.728639 +0100,
/Users/jellevanderwerff/workshop_2026/waltz_experiment/resources/K_Humperdinck_Haensel.wav,15,3,3,0,0,3,3,3,,,,,,,,,,,,,,,72.10666750000019,86,,,pilot2,001,2026-03-23_23h22.45.524,waltz,,2026.1.2,2026-03-23 23h22.45.728639 +0100,
/Users/jellevanderwerff/workshop_2026/waltz_experiment/resources/K_Humperdinck_Haensel.wav,15,3,3,0,0,3,3,3,,,,,,,,,,,,,,,72.45664354200017,6,,,pilot2,001,2026-03-23_23h22.45.524,waltz,,2026.1.2,2026-03-23 23h22.45.728639 +0100,
/Users/jellevanderwerff/workshop_2026/waltz_experiment/resources/K_Humperdinck_Haensel.wav,15,3,3,0,0,3,3,3,,,,,,,,,,,,,,,72.83180112500122,18,,,pilot2,001,2026-03-23_23h22.45.524,waltz,,2026.1.2,2026-03-23 23h22.45.728639 +0100,
/Users/jellevanderwerff/workshop_2026/waltz_experiment/resources/K_Humperdinck_Haensel.wav,15,3,3,0,0,3,3,3,,,,,,,,,,,,,,,73.14832175000083,101,,,pilot2,001,2026-03-23_23h22.45.524,waltz,,2026.1.2,2026-03-23 23h22.45.728639 +0100,
/Users/jellevanderwerff/workshop_2026/waltz_experiment/resources/K_Humperdinck_Haensel.wav,15,3,3,0,0,3,3,3,,,,,,,,,,,,,,,73.5233927090012,15,,,pilot2,001,2026-03-23_23h22.45.524,waltz,,2026.1.2,2026-03-23 23h22.45.728639 +0100,
/Users/jellevanderwerff/workshop_2026/waltz_experiment/resources/K_Humperdinck_Haensel.wav,15,3,3,0,0,3,3,3,,,,,,,,,,,,,,,73.81495258399991,6,,,pilot2,001,2026-03-23_23h22.45.524,waltz,,2026.1.2,2026-03-23 23h22.45.728639 +0100,
/Users/jellevanderwerff/workshop_2026/waltz_experiment/resources/K_Humperdinck_Haensel.wav,15,3,3,0,0,3,3,3,,,,,,,,,,,,,,,74.10668799999985,16,,,pilot2,001,2026-03-23_23h22.45.524,waltz,,2026.1.2,2026-03-23 23h22.45.728639 +0100,
/Users/jellevanderwerff/workshop_2026/waltz_experiment/resources/K_Humperdinck_Haensel.wav,15,3,3,0,0,3,3,3,,,,,,,,,,,,,,,74.42335950000052,60,,,pilot2,001,2026-03-23_23h22.45.524,waltz,,2026.1.2,2026-03-23 23h22.45.728639 +0100,
/Users/jellevanderwerff/workshop_2026/waltz_experiment/resources/K_Humperdinck_Haensel.wav,15,3,3,0,0,3,3,3,,,,,,,,,,,,,,,74.79010387500057,8,,,pilot2,001,2026-03-23_23h22.45.524,waltz,,2026.1.2,2026-03-23 23h22.45.728639 +0100,
/Users/jellevanderwerff/workshop_2026/waltz_experiment/resources/K_Humperdinck_Haensel.wav,15,3,3,0,0,3,3,3,,,,,,,,,,,,,,,75.11503716700099,22,,,pilot2,001,2026-03-23_23h22.45.524,waltz,,2026.1.2,2026-03-23 23h22.45.728639 +0100,
/Users/jellevanderwerff/workshop_2026/waltz_experiment/resources/K_Humperdinck_Haensel.wav,15,3,3,0,0,3,3,3,,,,,,,,,,,,,,,75.48171804200138,43,,,pilot2,001,2026-03-23_23h22.45.524,waltz,,2026.1.2,2026-03-23 23h22.45.728639 +0100,
/Users/jellevanderwerff/workshop_2026/waltz_experiment/resources/K_Humperdinck_Haensel.wav,15,3,3,0,0,3,3,3,,,,,,,,,,,,,,,75.81513437500143,9,,,pilot2,001,2026-03-23_23h22.45.524,waltz,,2026.1.2,2026-03-23 23h22.45.728639 +0100,
/Users/jellevanderwerff/workshop_2026/waltz_experiment/resources/K_Humperdinck_Haensel.wav,15,3,3,0,0,3,3,3,,,,,,,,,,,,,,,76.19005704200026,13,,,pilot2,001,2026-03-23_23h22.45.524,waltz,,2026.1.2,2026-03-23 23h22.45.728639 +0100,
/Users/jellevanderwerff/workshop_2026/waltz_experiment/resources/K_Humperdinck_Haensel.wav,15,3,3,0,0,3,3,3,,,,,,,,,,,,,,,76.54005125000003,84,,,pilot2,001,2026-03-23_23h22.45.524,waltz,,2026.1.2,2026-03-23 23h22.45.728639 +0100,
/Users/jellevanderwerff/workshop_2026/waltz_experiment/resources/K_Humperdinck_Haensel.wav,15,3,3,0,0,3,3,3,,,,,,,,,,,,,,,76.89837783400071,15,,,pilot2,001,2026-03-23_23h22.45.524,waltz,,2026.1.2,2026-03-23 23h22.45.728639 +0100,
/Users/jellevanderwerff/workshop_2026/waltz_experiment/resources/K_Humperdinck_Haensel.wav,15,3,3,0,0,3,3,3,,,,,,,,,,,,,,,77.2235180839998,9,,,pilot2,001,2026-03-23_23h22.45.524,waltz,,2026.1.2,2026-03-23 23h22.45.728639 +0100,
/Users/jellevanderwerff/workshop_2026/waltz_experiment/resources/K_Humperdinck_Haensel.wav,15,3,3,0,0,3,3,3,,,,,,,,,,,,,,,77.5901135840013,87,,,pilot2,001,2026-03-23_23h22.45.524,waltz,,2026.1.2,2026-03-23 23h22.45.728639 +0100,
/Users/jellevanderwerff/workshop_2026/waltz_experiment/resources/K_Humperdinck_Haensel.wav,15,3,3,0,0,3,3,3,,,,,,,,,,,,,,,77.95675845900041,12,,,pilot2,001,2026-03-23_23h22.45.524,waltz,,2026.1.2,2026-03-23 23h22.45.728639 +0100,
/Users/jellevanderwerff/workshop_2026/waltz_experiment/resources/K_Humperdinck_Haensel.wav,15,3,3,0,0,3,3,3,,,,,,,,,,,,,,,78.27346383400072,13,,,pilot2,001,2026-03-23_23h22.45.524,waltz,,2026.1.2,2026-03-23 23h22.45.728639 +0100,
/Users/jellevanderwerff/workshop_2026/waltz_experiment/resources/K_Humperdinck_Haensel.wav,15,3,3,0,0,3,3,3,,,,,,,,,,,,,,,78.59017558400046,67,,,pilot2,001,2026-03-23_23h22.45.524,waltz,,2026.1.2,2026-03-23 23h22.45.728639 +0100,
/Users/jellevanderwerff/workshop_2026/waltz_experiment/resources/K_Humperdinck_Haensel.wav,15,3,3,0,0,3,3,3,,,,,,,,,,,,,,,78.96510133400079,12,,,pilot2,001,2026-03-23_23h22.45.524,waltz,,2026.1.2,2026-03-23 23h22.45.728639 +0100,
/Users/jellevanderwerff/workshop_2026/waltz_experiment/resources/K_Humperdinck_Haensel.wav,15,3,3,0,0,3,3,3,,,,,,,,,,,,,,,79.29843812500076,12,,,pilot2,001,2026-03-23_23h22.45.524,waltz,,2026.1.2,2026-03-23 23h22.45.728639 +0100,
/Users/jellevanderwerff/workshop_2026/waltz_experiment/resources/K_Humperdinck_Haensel.wav,15,3,3,0,0,3,3,3,,,,,,,79.5182008339998,79.5228286670008,84.52299616700111,84.50698491700132,,,,,,,79.5228286670008,79.51818833400102,pilot2,001,2026-03-23_23h22.45.524,waltz,,2026.1.2,2026-03-23 23h22.45.728639 +0100,
/Users/jellevanderwerff/workshop_2026/waltz_experiment/resources/K_Skrjabin_Prelude1.wav,15,4,4,0,0,4,4,4,84.52299616700111,,,,,,,,,,84.51559970900053,,,,84.51563041700138,86,,,pilot2,001,2026-03-23_23h22.45.524,waltz,,2026.1.2,2026-03-23 23h22.45.728639 +0100,
/Users/jellevanderwerff/workshop_2026/waltz_experiment/resources/K_Skrjabin_Prelude1.wav,15,4,4,0,0,4,4,4,,,,,,,,,,,,84.52296416666674,84.52299616700111,85.51462158400136,87.22364383400054,26,,,pilot2,001,2026-03-23_23h22.45.524,waltz,,2026.1.2,2026-03-23 23h22.45.728639 +0100,
/Users/jellevanderwerff/workshop_2026/waltz_experiment/resources/K_Skrjabin_Prelude1.wav,15,4,4,0,0,4,4,4,,,,,,,,,,,,,,,88.14031570900079,24,,,pilot2,001,2026-03-23_23h22.45.524,waltz,,2026.1.2,2026-03-23 23h22.45.728639 +0100,
/Users/jellevanderwerff/workshop_2026/waltz_experiment/resources/K_Skrjabin_Prelude1.wav,15,4,4,0,0,4,4,4,,,,,,,,,,,,,,,89.16543625000122,41,,,pilot2,001,2026-03-23_23h22.45.524,waltz,,2026.1.2,2026-03-23 23h22.45.728639 +0100,
/Users/jellevanderwerff/workshop_2026/waltz_experiment/resources/K_Skrjabin_Prelude1.wav,15,4,4,0,0,4,4,4,,,,,,,,,,,,,,,89.94874870900094,6,,,pilot2,001,2026-03-23_23h22.45.524,waltz,,2026.1.2,2026-03-23 23h22.45.728639 +0100,
/Users/jellevanderwerff/workshop_2026/waltz_experiment/resources/K_Skrjabin_Prelude1.wav,15,4,4,0,0,4,4,4,,,,,,,,,,,,,,,90.29037512500145,40,,,pilot2,001,2026-03-23_23h22.45.524,waltz,,2026.1.2,2026-03-23 23h22.45.728639 +0100,
/Users/jellevanderwerff/workshop_2026/waltz_experiment/resources/K_Skrjabin_Prelude1.wav,15,4,4,0,0,4,4,4,,,,,,,,,,,,,,,91.04044766700099,8,,,pilot2,001,2026-03-23_23h22.45.524,waltz,,2026.1.2,2026-03-23 23h22.45.728639 +0100,
/Users/jellevanderwerff/workshop_2026/waltz_experiment/resources/K_Skrjabin_Prelude1.wav,15,4,4,0,0,4,4,4,,,,,,,,,,,,,,,91.34881954200137,43,,,pilot2,001,2026-03-23_23h22.45.524,waltz,,2026.1.2,2026-03-23 23h22.45.728639 +0100,
/Users/jellevanderwerff/workshop_2026/waltz_experiment/resources/K_Skrjabin_Prelude1.wav,15,4,4,0,0,4,4,4,,,,,,,,,,,,,,,91.73212283400062,6,,,pilot2,001,2026-03-23_23h22.45.524,waltz,,2026.1.2,2026-03-23 23h22.45.728639 +0100,
/Users/jellevanderwerff/workshop_2026/waltz_experiment/resources/K_Skrjabin_Prelude1.wav,15,4,4,0,0,4,4,4,,,,,,,,,,,,,,,92.06542670900126,7,,,pilot2,001,2026-03-23_23h22.45.524,waltz,,2026.1.2,2026-03-23 23h22.45.728639 +0100,
/Users/jellevanderwerff/workshop_2026/waltz_experiment/resources/K_Skrjabin_Prelude1.wav,15,4,4,0,0,4,4,4,,,,,,,,,,,,,,,92.36547775000145,50,,,pilot2,001,2026-03-23_23h22.45.524,waltz,,2026.1.2,2026-03-23 23h22.45.728639 +0100,
/Users/jellevanderwerff/workshop_2026/waltz_experiment/resources/K_Skrjabin_Prelude1.wav,15,4,4,0,0,4,4,4,,,,,,,,,,,,,,,92.72380020899982,6,,,pilot2,001,2026-03-23_23h22.45.524,waltz,,2026.1.2,2026-03-23 23h22.45.728639 +0100,
/Users/jellevanderwerff/workshop_2026/waltz_experiment/resources/K_Skrjabin_Prelude1.wav,15,4,4,0,0,4,4,4,,,,,,,,,,,,,,,93.0238303340011,7,,,pilot2,001,2026-03-23_23h22.45.524,waltz,,2026.1.2,2026-03-23 23h22.45.728639 +0100,
/Users/jellevanderwerff/workshop_2026/waltz_experiment/resources/K_Skrjabin_Prelude1.wav,15,4,4,0,0,4,4,4,,,,,,,,,,,,,,,93.35713004200079,31,,,pilot2,001,2026-03-23_23h22.45.524,waltz,,2026.1.2,2026-03-23 23h22.45.728639 +0100,
/Users/jellevanderwerff/workshop_2026/waltz_experiment/resources/K_Skrjabin_Prelude1.wav,15,4,4,0,0,4,4,4,,,,,,,,,,,,,,,93.71550970899989,13,,,pilot2,001,2026-03-23_23h22.45.524,waltz,,2026.1.2,2026-03-23 23h22.45.728639 +0100,
/Users/jellevanderwerff/workshop_2026/waltz_experiment/resources/K_Skrjabin_Prelude1.wav,15,4,4,0,0,4,4,4,,,,,,,,,,,,,,,94.05717266700049,12,,,pilot2,001,2026-03-23_23h22.45.524,waltz,,2026.1.2,2026-03-23 23h22.45.728639 +0100,
/Users/jellevanderwerff/workshop_2026/waltz_experiment/resources/K_Skrjabin_Prelude1.wav,15,4,4,0,0,4,4,4,,,,,,,,,,,,,,,94.36557358400023,32,,,pilot2,001,2026-03-23_23h22.45.524,waltz,,2026.1.2,2026-03-23 23h22.45.728639 +0100,
/Users/jellevanderwerff/workshop_2026/waltz_experiment/resources/K_Skrjabin_Prelude1.wav,15,4,4,0,0,4,4,4,,,,,,,,,,,,,,,94.72379225000077,11,,,pilot2,001,2026-03-23_23h22.45.524,waltz,,2026.1.2,2026-03-23 23h22.45.728639 +0100,
/Users/jellevanderwerff/workshop_2026/waltz_experiment/resources/K_Skrjabin_Prelude1.wav,15,4,4,0,0,4,4,4,,,,,,,,,,,,,,,95.05735425000057,13,,,pilot2,001,2026-03-23_23h22.45.524,waltz,,2026.1.2,2026-03-23 23h22.45.728639 +0100,
/Users/jellevanderwerff/workshop_2026/waltz_experiment/resources/K_Skrjabin_Prelude1.wav,15,4,4,0,0,4,4,4,,,,,,,,,,,,,,,95.37382554200121,84,,,pilot2,001,2026-03-23_23h22.45.524,waltz,,2026.1.2,2026-03-23 23h22.45.728639 +0100,
/Users/jellevanderwerff/workshop_2026/waltz_experiment/resources/K_Skrjabin_Prelude1.wav,15,4,4,0,0,4,4,4,,,,,,,,,,,,,,,95.7572375840009,7,,,pilot2,001,2026-03-23_23h22.45.524,waltz,,2026.1.2,2026-03-23 23h22.45.728639 +0100,
/Users/jellevanderwerff/workshop_2026/waltz_experiment/resources/K_Skrjabin_Prelude1.wav,15,4,4,0,0,4,4,4,,,,,,,,,,,,,,,96.12389112500023,13,,,pilot2,001,2026-03-23_23h22.45.524,waltz,,2026.1.2,2026-03-23 23h22.45.728639 +0100,
/Users/jellevanderwerff/workshop_2026/waltz_experiment/resources/K_Skrjabin_Prelude1.wav,15,4,4,0,0,4,4,4,,,,,,,,,,,,,,,96.39881962500112,34,,,pilot2,001,2026-03-23_23h22.45.524,waltz,,2026.1.2,2026-03-23 23h22.45.728639 +0100,
/Users/jellevanderwerff/workshop_2026/waltz_experiment/resources/K_Skrjabin_Prelude1.wav,15,4,4,0,0,4,4,4,,,,,,,,,,,,,,,97.13221987500037,8,,,pilot2,001,2026-03-23_23h22.45.524,waltz,,2026.1.2,2026-03-23 23h22.45.728639 +0100,
/Users/jellevanderwerff/workshop_2026/waltz_experiment/resources/K_Skrjabin_Prelude1.wav,15,4,4,0,0,4,4,4,,,,,,,,,,,,,,,97.46551629200076,39,,,pilot2,001,2026-03-23_23h22.45.524,waltz,,2026.1.2,2026-03-23 23h22.45.728639 +0100,
/Users/jellevanderwerff/workshop_2026/waltz_experiment/resources/K_Skrjabin_Prelude1.wav,15,4,4,0,0,4,4,4,,,,,,,,,,,,,,,97.80730416700135,28,,,pilot2,001,2026-03-23_23h22.45.524,waltz,,2026.1.2,2026-03-23 23h22.45.728639 +0100,
/Users/jellevanderwerff/workshop_2026/waltz_experiment/resources/K_Skrjabin_Prelude1.wav,15,4,4,0,0,4,4,4,,,,,,,,,,,,,,,98.14894341699983,19,,,pilot2,001,2026-03-23_23h22.45.524,waltz,,2026.1.2,2026-03-23 23h22.45.728639 +0100,
/Users/jellevanderwerff/workshop_2026/waltz_experiment/resources/K_Skrjabin_Prelude1.wav,15,4,4,0,0,4,4,4,,,,,,,,,,,,,,,98.48236095900029,88,,,pilot2,001,2026-03-23_23h22.45.524,waltz,,2026.1.2,2026-03-23 23h22.45.728639 +0100,
/Users/jellevanderwerff/workshop_2026/waltz_experiment/resources/K_Skrjabin_Prelude1.wav,15,4,4,0,0,4,4,4,,,,,,,,,,,,,,,98.83233308400122,20,,,pilot2,001,2026-03-23_23h22.45.524,waltz,,2026.1.2,2026-03-23 23h22.45.728639 +0100,
/Users/jellevanderwerff/workshop_2026/waltz_experiment/resources/K_Skrjabin_Prelude1.wav,15,4,4,0,0,4,4,4,,,,,,,,,,,,,,,99.1656476670014,27,,,pilot2,001,2026-03-23_23h22.45.524,waltz,,2026.1.2,2026-03-23 23h22.45.728639 +0100,
/Users/jellevanderwerff/workshop_2026/waltz_experiment/resources/K_Skrjabin_Prelude1.wav,15,4,4,0,0,4,4,4,,,,,,,,,,,,,,,99.4822373750012,69,,,pilot2,001,2026-03-23_23h22.45.524,waltz,,2026.1.2,2026-03-23 23h22.45.728639 +0100,
/Users/jellevanderwerff/workshop_2026/waltz_experiment/resources/K_Skrjabin_Prelude1.wav,15,4,4,0,0,4,4,4,,,,,,,99.5105008340015,99.51489075000063,104.5067340000005,104.4990802500015,,,,,,,99.51489075000063,99.51048891700157,pilot2,001,2026-03-23_23h22.45.524,waltz,,2026.1.2,2026-03-23 23h22.45.728639 +0100,
