fileName,playLength,thisN,thisTrialN,thisRepN,trials.thisRepN,trials.thisTrialN,trials.thisN,trials.thisIndex,thisRow.t,notes,piloting,get_ready.started,text.started,get_ready.stopped,trial.started,stimulus.started,start_tapping.started,resp.time,resp.velocity,stimulus.stopped,start_tapping.stopped,trial.stopped,ITI.started,stop_tapping.started,stop_tapping.stopped,ITI.stopped,end_exp.started,thankyou.started,thankyou.stopped,end_exp.stopped,participant,session,date,expName,expVersion,psychopyVersion,expStart,
,,,,,,,,,,,False,0.02484504197491333,0.04726908297743648,10.002037875005044,,,,,,,,,,,,,,,,,jelle,001,2026-03-31_11h58.32.494,attack,,2026.1.2,2026-03-31 11h58.32.661407 +0200,
/Users/jellevanderwerff/workshop_2026/attack_experiment/resources/sequence_onramp_0ms.wav,12,0,0,0,0,0,0,0,10.036224624956958,,,,,,10.025272207974922,10.035337750342055,10.036224624956958,11.231386416999158,93,,,,,,,,,,,,jelle,001,2026-03-31_11h58.32.494,attack,,2026.1.2,2026-03-31 11h58.32.661407 +0200,
/Users/jellevanderwerff/workshop_2026/attack_experiment/resources/sequence_onramp_0ms.wav,12,0,0,0,0,0,0,0,,,,,,,,,,11.656507499981672,92,,,,,,,,,,,,jelle,001,2026-03-31_11h58.32.494,attack,,2026.1.2,2026-03-31 11h58.32.661407 +0200,
/Users/jellevanderwerff/workshop_2026/attack_experiment/resources/sequence_onramp_0ms.wav,12,0,0,0,0,0,0,0,,,,,,,,,,11.993408749985974,71,,,,,,,,,,,,jelle,001,2026-03-31_11h58.32.494,attack,,2026.1.2,2026-03-31 11h58.32.661407 +0200,
/Users/jellevanderwerff/workshop_2026/attack_experiment/resources/sequence_onramp_0ms.wav,12,0,0,0,0,0,0,0,,,,,,,,,,12.31068754196167,37,,,,,,,,,,,,jelle,001,2026-03-31_11h58.32.494,attack,,2026.1.2,2026-03-31 11h58.32.661407 +0200,
/Users/jellevanderwerff/workshop_2026/attack_experiment/resources/sequence_onramp_0ms.wav,12,0,0,0,0,0,0,0,,,,,,,,,,12.544047124974895,116,,,,,,,,,,,,jelle,001,2026-03-31_11h58.32.494,attack,,2026.1.2,2026-03-31 11h58.32.661407 +0200,
/Users/jellevanderwerff/workshop_2026/attack_experiment/resources/sequence_onramp_0ms.wav,12,0,0,0,0,0,0,0,,,,,,,,,,13.04415416700067,55,,,,,,,,,,,,jelle,001,2026-03-31_11h58.32.494,attack,,2026.1.2,2026-03-31 11h58.32.661407 +0200,
/Users/jellevanderwerff/workshop_2026/attack_experiment/resources/sequence_onramp_0ms.wav,12,0,0,0,0,0,0,0,,,,,,,,,,13.552099374996033,74,,,,,,,,,,,,jelle,001,2026-03-31_11h58.32.494,attack,,2026.1.2,2026-03-31 11h58.32.661407 +0200,
/Users/jellevanderwerff/workshop_2026/attack_experiment/resources/sequence_onramp_0ms.wav,12,0,0,0,0,0,0,0,,,,,,,,,,14.036052999959793,71,,,,,,,,,,,,jelle,001,2026-03-31_11h58.32.494,attack,,2026.1.2,2026-03-31 11h58.32.661407 +0200,
/Users/jellevanderwerff/workshop_2026/attack_experiment/resources/sequence_onramp_0ms.wav,12,0,0,0,0,0,0,0,,,,,,,,,,14.56047587498324,101,,,,,,,,,,,,jelle,001,2026-03-31_11h58.32.494,attack,,2026.1.2,2026-03-31 11h58.32.661407 +0200,
/Users/jellevanderwerff/workshop_2026/attack_experiment/resources/sequence_onramp_0ms.wav,12,0,0,0,0,0,0,0,,,,,,,,,,15.102338124997914,64,,,,,,,,,,,,jelle,001,2026-03-31_11h58.32.494,attack,,2026.1.2,2026-03-31 11h58.32.661407 +0200,
/Users/jellevanderwerff/workshop_2026/attack_experiment/resources/sequence_onramp_0ms.wav,12,0,0,0,0,0,0,0,,,,,,,,,,15.543760666972958,54,,,,,,,,,,,,jelle,001,2026-03-31_11h58.32.494,attack,,2026.1.2,2026-03-31 11h58.32.661407 +0200,
/Users/jellevanderwerff/workshop_2026/attack_experiment/resources/sequence_onramp_0ms.wav,12,0,0,0,0,0,0,0,,,,,,,,,,16.018779666977935,40,,,,,,,,,,,,jelle,001,2026-03-31_11h58.32.494,attack,,2026.1.2,2026-03-31 11h58.32.661407 +0200,
/Users/jellevanderwerff/workshop_2026/attack_experiment/resources/sequence_onramp_0ms.wav,12,0,0,0,0,0,0,0,,,,,,,,,,16.585457874985877,79,,,,,,,,,,,,jelle,001,2026-03-31_11h58.32.494,attack,,2026.1.2,2026-03-31 11h58.32.661407 +0200,
/Users/jellevanderwerff/workshop_2026/attack_experiment/resources/sequence_onramp_0ms.wav,12,0,0,0,0,0,0,0,,,,,,,,,,17.08582070795819,54,,,,,,,,,,,,jelle,001,2026-03-31_11h58.32.494,attack,,2026.1.2,2026-03-31 11h58.32.661407 +0200,
/Users/jellevanderwerff/workshop_2026/attack_experiment/resources/sequence_onramp_0ms.wav,12,0,0,0,0,0,0,0,,,,,,,,,,17.552736207959242,78,,,,,,,,,,,,jelle,001,2026-03-31_11h58.32.494,attack,,2026.1.2,2026-03-31 11h58.32.661407 +0200,
/Users/jellevanderwerff/workshop_2026/attack_experiment/resources/sequence_onramp_0ms.wav,12,0,0,0,0,0,0,0,,,,,,,,,,18.052687749965116,45,,,,,,,,,,,,jelle,001,2026-03-31_11h58.32.494,attack,,2026.1.2,2026-03-31 11h58.32.661407 +0200,
/Users/jellevanderwerff/workshop_2026/attack_experiment/resources/sequence_onramp_0ms.wav,12,0,0,0,0,0,0,0,,,,,,,,,,18.54338354198262,34,,,,,,,,,,,,jelle,001,2026-03-31_11h58.32.494,attack,,2026.1.2,2026-03-31 11h58.32.661407 +0200,
/Users/jellevanderwerff/workshop_2026/attack_experiment/resources/sequence_onramp_0ms.wav,12,0,0,0,0,0,0,0,,,,,,,,,,19.068910416972358,39,,,,,,,,,,,,jelle,001,2026-03-31_11h58.32.494,attack,,2026.1.2,2026-03-31 11h58.32.661407 +0200,
/Users/jellevanderwerff/workshop_2026/attack_experiment/resources/sequence_onramp_0ms.wav,12,0,0,0,0,0,0,0,,,,,,,,,,19.552118916995823,47,,,,,,,,,,,,jelle,001,2026-03-31_11h58.32.494,attack,,2026.1.2,2026-03-31 11h58.32.661407 +0200,
/Users/jellevanderwerff/workshop_2026/attack_experiment/resources/sequence_onramp_0ms.wav,12,0,0,0,0,0,0,0,,,,,,,,,,20.027098916994873,37,,,,,,,,,,,,jelle,001,2026-03-31_11h58.32.494,attack,,2026.1.2,2026-03-31 11h58.32.661407 +0200,
/Users/jellevanderwerff/workshop_2026/attack_experiment/resources/sequence_onramp_0ms.wav,12,0,0,0,0,0,0,0,,,,,,,,,,20.560448749980424,35,,,,,,,,,,,,jelle,001,2026-03-31_11h58.32.494,attack,,2026.1.2,2026-03-31 11h58.32.661407 +0200,
/Users/jellevanderwerff/workshop_2026/attack_experiment/resources/sequence_onramp_0ms.wav,12,0,0,0,0,0,0,0,,,,,,,,,,21.052126416994724,48,,,,,,,,,,,,jelle,001,2026-03-31_11h58.32.494,attack,,2026.1.2,2026-03-31 11h58.32.661407 +0200,
/Users/jellevanderwerff/workshop_2026/attack_experiment/resources/sequence_onramp_0ms.wav,12,0,0,0,0,0,0,0,,,,,,,,,,21.585377874958795,48,,,,,,,,,,,,jelle,001,2026-03-31_11h58.32.494,attack,,2026.1.2,2026-03-31 11h58.32.661407 +0200,
/Users/jellevanderwerff/workshop_2026/attack_experiment/resources/sequence_onramp_0ms.wav,12,0,0,0,0,0,0,0,,,,,,,,,,,,22.043961416988168,22.043961416988168,22.033935707993805,22.033948166994378,22.043961416988168,25.061358875012957,25.027864291972946,,,,,jelle,001,2026-03-31_11h58.32.494,attack,,2026.1.2,2026-03-31 11h58.32.661407 +0200,
/Users/jellevanderwerff/workshop_2026/attack_experiment/resources/sequence_onramp_100ms.wav,12,1,1,0,0,1,1,3,25.061358875012957,,,,,,25.04484483296983,25.061139041332837,25.061358875012957,25.06142116698902,54,,,,,,,,,,,,jelle,001,2026-03-31_11h58.32.494,attack,,2026.1.2,2026-03-31 11h58.32.661407 +0200,
/Users/jellevanderwerff/workshop_2026/attack_experiment/resources/sequence_onramp_100ms.wav,12,1,1,0,0,1,1,3,,,,,,,,,,25.61445570801152,58,,,,,,,,,,,,jelle,001,2026-03-31_11h58.32.494,attack,,2026.1.2,2026-03-31 11h58.32.661407 +0200,
/Users/jellevanderwerff/workshop_2026/attack_experiment/resources/sequence_onramp_100ms.wav,12,1,1,0,0,1,1,3,,,,,,,,,,26.140018208010588,51,,,,,,,,,,,,jelle,001,2026-03-31_11h58.32.494,attack,,2026.1.2,2026-03-31 11h58.32.661407 +0200,
/Users/jellevanderwerff/workshop_2026/attack_experiment/resources/sequence_onramp_100ms.wav,12,1,1,0,0,1,1,3,,,,,,,,,,26.61536720796721,53,,,,,,,,,,,,jelle,001,2026-03-31_11h58.32.494,attack,,2026.1.2,2026-03-31 11h58.32.661407 +0200,
/Users/jellevanderwerff/workshop_2026/attack_experiment/resources/sequence_onramp_100ms.wav,12,1,1,0,0,1,1,3,,,,,,,,,,27.131281792011578,52,,,,,,,,,,,,jelle,001,2026-03-31_11h58.32.494,attack,,2026.1.2,2026-03-31 11h58.32.661407 +0200,
/Users/jellevanderwerff/workshop_2026/attack_experiment/resources/sequence_onramp_100ms.wav,12,1,1,0,0,1,1,3,,,,,,,,,,27.615243416978046,58,,,,,,,,,,,,jelle,001,2026-03-31_11h58.32.494,attack,,2026.1.2,2026-03-31 11h58.32.661407 +0200,
/Users/jellevanderwerff/workshop_2026/attack_experiment/resources/sequence_onramp_100ms.wav,12,1,1,0,0,1,1,3,,,,,,,,,,28.223497041966766,50,,,,,,,,,,,,jelle,001,2026-03-31_11h58.32.494,attack,,2026.1.2,2026-03-31 11h58.32.661407 +0200,
/Users/jellevanderwerff/workshop_2026/attack_experiment/resources/sequence_onramp_100ms.wav,12,1,1,0,0,1,1,3,,,,,,,,,,28.748543499968946,78,,,,,,,,,,,,jelle,001,2026-03-31_11h58.32.494,attack,,2026.1.2,2026-03-31 11h58.32.661407 +0200,
/Users/jellevanderwerff/workshop_2026/attack_experiment/resources/sequence_onramp_100ms.wav,12,1,1,0,0,1,1,3,,,,,,,,,,29.30669570795726,53,,,,,,,,,,,,jelle,001,2026-03-31_11h58.32.494,attack,,2026.1.2,2026-03-31 11h58.32.661407 +0200,
/Users/jellevanderwerff/workshop_2026/attack_experiment/resources/sequence_onramp_100ms.wav,12,1,1,0,0,1,1,3,,,,,,,,,,29.881767291983124,60,,,,,,,,,,,,jelle,001,2026-03-31_11h58.32.494,attack,,2026.1.2,2026-03-31 11h58.32.661407 +0200,
/Users/jellevanderwerff/workshop_2026/attack_experiment/resources/sequence_onramp_100ms.wav,12,1,1,0,0,1,1,3,,,,,,,,,,30.41516708297422,53,,,,,,,,,,,,jelle,001,2026-03-31_11h58.32.494,attack,,2026.1.2,2026-03-31 11h58.32.661407 +0200,
/Users/jellevanderwerff/workshop_2026/attack_experiment/resources/sequence_onramp_100ms.wav,12,1,1,0,0,1,1,3,,,,,,,,,,31.03188537497772,61,,,,,,,,,,,,jelle,001,2026-03-31_11h58.32.494,attack,,2026.1.2,2026-03-31 11h58.32.661407 +0200,
/Users/jellevanderwerff/workshop_2026/attack_experiment/resources/sequence_onramp_100ms.wav,12,1,1,0,0,1,1,3,,,,,,,,,,31.581819457991514,54,,,,,,,,,,,,jelle,001,2026-03-31_11h58.32.494,attack,,2026.1.2,2026-03-31 11h58.32.661407 +0200,
/Users/jellevanderwerff/workshop_2026/attack_experiment/resources/sequence_onramp_100ms.wav,12,1,1,0,0,1,1,3,,,,,,,,,,32.165363832958974,89,,,,,,,,,,,,jelle,001,2026-03-31_11h58.32.494,attack,,2026.1.2,2026-03-31 11h58.32.661407 +0200,
/Users/jellevanderwerff/workshop_2026/attack_experiment/resources/sequence_onramp_100ms.wav,12,1,1,0,0,1,1,3,,,,,,,,,,32.65689766698051,84,,,,,,,,,,,,jelle,001,2026-03-31_11h58.32.494,attack,,2026.1.2,2026-03-31 11h58.32.661407 +0200,
/Users/jellevanderwerff/workshop_2026/attack_experiment/resources/sequence_onramp_100ms.wav,12,1,1,0,0,1,1,3,,,,,,,,,,33.18180208298145,40,,,,,,,,,,,,jelle,001,2026-03-31_11h58.32.494,attack,,2026.1.2,2026-03-31 11h58.32.661407 +0200,
/Users/jellevanderwerff/workshop_2026/attack_experiment/resources/sequence_onramp_100ms.wav,12,1,1,0,0,1,1,3,,,,,,,,,,33.6735894579906,84,,,,,,,,,,,,jelle,001,2026-03-31_11h58.32.494,attack,,2026.1.2,2026-03-31 11h58.32.661407 +0200,
/Users/jellevanderwerff/workshop_2026/attack_experiment/resources/sequence_onramp_100ms.wav,12,1,1,0,0,1,1,3,,,,,,,,,,34.2069611249608,99,,,,,,,,,,,,jelle,001,2026-03-31_11h58.32.494,attack,,2026.1.2,2026-03-31 11h58.32.661407 +0200,
/Users/jellevanderwerff/workshop_2026/attack_experiment/resources/sequence_onramp_100ms.wav,12,1,1,0,0,1,1,3,,,,,,,,,,34.756282791960984,63,,,,,,,,,,,,jelle,001,2026-03-31_11h58.32.494,attack,,2026.1.2,2026-03-31 11h58.32.661407 +0200,
/Users/jellevanderwerff/workshop_2026/attack_experiment/resources/sequence_onramp_100ms.wav,12,1,1,0,0,1,1,3,,,,,,,,,,35.364825124968775,96,,,,,,,,,,,,jelle,001,2026-03-31_11h58.32.494,attack,,2026.1.2,2026-03-31 11h58.32.661407 +0200,
/Users/jellevanderwerff/workshop_2026/attack_experiment/resources/sequence_onramp_100ms.wav,12,1,1,0,0,1,1,3,,,,,,,,,,35.82259712496307,92,,,,,,,,,,,,jelle,001,2026-03-31_11h58.32.494,attack,,2026.1.2,2026-03-31 11h58.32.661407 +0200,
/Users/jellevanderwerff/workshop_2026/attack_experiment/resources/sequence_onramp_100ms.wav,12,1,1,0,0,1,1,3,,,,,,,,,,36.43121033295756,45,,,,,,,,,,,,jelle,001,2026-03-31_11h58.32.494,attack,,2026.1.2,2026-03-31 11h58.32.661407 +0200,
/Users/jellevanderwerff/workshop_2026/attack_experiment/resources/sequence_onramp_100ms.wav,12,1,1,0,0,1,1,3,,,,,,,,,,36.97289891698165,59,,,,,,,,,,,,jelle,001,2026-03-31_11h58.32.494,attack,,2026.1.2,2026-03-31 11h58.32.661407 +0200,
/Users/jellevanderwerff/workshop_2026/attack_experiment/resources/sequence_onramp_100ms.wav,12,1,1,0,0,1,1,3,,,,,,,,,,,,37.08214908296941,37.08214908296941,37.06453254196094,37.06455033295788,37.08214908296941,,40.06929233297706,,,,,jelle,001,2026-03-31_11h58.32.494,attack,,2026.1.2,2026-03-31 11h58.32.661407 +0200,
/Users/jellevanderwerff/workshop_2026/attack_experiment/resources/sequence_onramp_20ms.wav,12,2,2,0,0,2,2,1,40.0944523329963,,,,,,40.08364295796491,40.08591949963399,40.0944523329963,40.6484917079797,76,,,,,,,,,,,,jelle,001,2026-03-31_11h58.32.494,attack,,2026.1.2,2026-03-31 11h58.32.661407 +0200,
/Users/jellevanderwerff/workshop_2026/attack_experiment/resources/sequence_onramp_20ms.wav,12,2,2,0,0,2,2,1,,,,,,,,,,41.181698583008256,94,,,,,,,,,,,,jelle,001,2026-03-31_11h58.32.494,attack,,2026.1.2,2026-03-31 11h58.32.661407 +0200,
/Users/jellevanderwerff/workshop_2026/attack_experiment/resources/sequence_onramp_20ms.wav,12,2,2,0,0,2,2,1,,,,,,,,,,41.69818162498996,96,,,,,,,,,,,,jelle,001,2026-03-31_11h58.32.494,attack,,2026.1.2,2026-03-31 11h58.32.661407 +0200,
/Users/jellevanderwerff/workshop_2026/attack_experiment/resources/sequence_onramp_20ms.wav,12,2,2,0,0,2,2,1,,,,,,,,,,42.20629820798058,107,,,,,,,,,,,,jelle,001,2026-03-31_11h58.32.494,attack,,2026.1.2,2026-03-31 11h58.32.661407 +0200,
/Users/jellevanderwerff/workshop_2026/attack_experiment/resources/sequence_onramp_20ms.wav,12,2,2,0,0,2,2,1,,,,,,,,,,42.731901541992556,97,,,,,,,,,,,,jelle,001,2026-03-31_11h58.32.494,attack,,2026.1.2,2026-03-31 11h58.32.661407 +0200,
/Users/jellevanderwerff/workshop_2026/attack_experiment/resources/sequence_onramp_20ms.wav,12,2,2,0,0,2,2,1,,,,,,,,,,43.19855849997839,110,,,,,,,,,,,,jelle,001,2026-03-31_11h58.32.494,attack,,2026.1.2,2026-03-31 11h58.32.661407 +0200,
/Users/jellevanderwerff/workshop_2026/attack_experiment/resources/sequence_onramp_20ms.wav,12,2,2,0,0,2,2,1,,,,,,,,,,43.65598845796194,104,,,,,,,,,,,,jelle,001,2026-03-31_11h58.32.494,attack,,2026.1.2,2026-03-31 11h58.32.661407 +0200,
/Users/jellevanderwerff/workshop_2026/attack_experiment/resources/sequence_onramp_20ms.wav,12,2,2,0,0,2,2,1,,,,,,,,,,44.147917333000805,87,,,,,,,,,,,,jelle,001,2026-03-31_11h58.32.494,attack,,2026.1.2,2026-03-31 11h58.32.661407 +0200,
/Users/jellevanderwerff/workshop_2026/attack_experiment/resources/sequence_onramp_20ms.wav,12,2,2,0,0,2,2,1,,,,,,,,,,44.67363045801176,98,,,,,,,,,,,,jelle,001,2026-03-31_11h58.32.494,attack,,2026.1.2,2026-03-31 11h58.32.661407 +0200,
/Users/jellevanderwerff/workshop_2026/attack_experiment/resources/sequence_onramp_20ms.wav,12,2,2,0,0,2,2,1,,,,,,,,,,45.214513124956284,69,,,,,,,,,,,,jelle,001,2026-03-31_11h58.32.494,attack,,2026.1.2,2026-03-31 11h58.32.661407 +0200,
/Users/jellevanderwerff/workshop_2026/attack_experiment/resources/sequence_onramp_20ms.wav,12,2,2,0,0,2,2,1,,,,,,,,,,45.672677082999144,85,,,,,,,,,,,,jelle,001,2026-03-31_11h58.32.494,attack,,2026.1.2,2026-03-31 11h58.32.661407 +0200,
/Users/jellevanderwerff/workshop_2026/attack_experiment/resources/sequence_onramp_20ms.wav,12,2,2,0,0,2,2,1,,,,,,,,,,46.18183999997564,75,,,,,,,,,,,,jelle,001,2026-03-31_11h58.32.494,attack,,2026.1.2,2026-03-31 11h58.32.661407 +0200,
/Users/jellevanderwerff/workshop_2026/attack_experiment/resources/sequence_onramp_20ms.wav,12,2,2,0,0,2,2,1,,,,,,,,,,46.63963412499288,90,,,,,,,,,,,,jelle,001,2026-03-31_11h58.32.494,attack,,2026.1.2,2026-03-31 11h58.32.661407 +0200,
/Users/jellevanderwerff/workshop_2026/attack_experiment/resources/sequence_onramp_20ms.wav,12,2,2,0,0,2,2,1,,,,,,,,,,47.13173729198752,94,,,,,,,,,,,,jelle,001,2026-03-31_11h58.32.494,attack,,2026.1.2,2026-03-31 11h58.32.661407 +0200,
/Users/jellevanderwerff/workshop_2026/attack_experiment/resources/sequence_onramp_20ms.wav,12,2,2,0,0,2,2,1,,,,,,,,,,47.665265707997605,87,,,,,,,,,,,,jelle,001,2026-03-31_11h58.32.494,attack,,2026.1.2,2026-03-31 11h58.32.661407 +0200,
/Users/jellevanderwerff/workshop_2026/attack_experiment/resources/sequence_onramp_20ms.wav,12,2,2,0,0,2,2,1,,,,,,,,,,48.12340558297001,90,,,,,,,,,,,,jelle,001,2026-03-31_11h58.32.494,attack,,2026.1.2,2026-03-31 11h58.32.661407 +0200,
/Users/jellevanderwerff/workshop_2026/attack_experiment/resources/sequence_onramp_20ms.wav,12,2,2,0,0,2,2,1,,,,,,,,,,48.62282766698627,83,,,,,,,,,,,,jelle,001,2026-03-31_11h58.32.494,attack,,2026.1.2,2026-03-31 11h58.32.661407 +0200,
/Users/jellevanderwerff/workshop_2026/attack_experiment/resources/sequence_onramp_20ms.wav,12,2,2,0,0,2,2,1,,,,,,,,,,49.12352937500691,84,,,,,,,,,,,,jelle,001,2026-03-31_11h58.32.494,attack,,2026.1.2,2026-03-31 11h58.32.661407 +0200,
/Users/jellevanderwerff/workshop_2026/attack_experiment/resources/sequence_onramp_20ms.wav,12,2,2,0,0,2,2,1,,,,,,,,,,49.63161779200891,94,,,,,,,,,,,,jelle,001,2026-03-31_11h58.32.494,attack,,2026.1.2,2026-03-31 11h58.32.661407 +0200,
/Users/jellevanderwerff/workshop_2026/attack_experiment/resources/sequence_onramp_20ms.wav,12,2,2,0,0,2,2,1,,,,,,,,,,50.10623554198537,88,,,,,,,,,,,,jelle,001,2026-03-31_11h58.32.494,attack,,2026.1.2,2026-03-31 11h58.32.661407 +0200,
/Users/jellevanderwerff/workshop_2026/attack_experiment/resources/sequence_onramp_20ms.wav,12,2,2,0,0,2,2,1,,,,,,,,,,50.5729623750085,49,,,,,,,,,,,,jelle,001,2026-03-31_11h58.32.494,attack,,2026.1.2,2026-03-31 11h58.32.661407 +0200,
/Users/jellevanderwerff/workshop_2026/attack_experiment/resources/sequence_onramp_20ms.wav,12,2,2,0,0,2,2,1,,,,,,,,,,51.07372458296595,50,,,,,,,,,,,,jelle,001,2026-03-31_11h58.32.494,attack,,2026.1.2,2026-03-31 11h58.32.661407 +0200,
/Users/jellevanderwerff/workshop_2026/attack_experiment/resources/sequence_onramp_20ms.wav,12,2,2,0,0,2,2,1,,,,,,,,,,51.589988916995935,70,,,,,,,,,,,,jelle,001,2026-03-31_11h58.32.494,attack,,2026.1.2,2026-03-31 11h58.32.661407 +0200,
/Users/jellevanderwerff/workshop_2026/attack_experiment/resources/sequence_onramp_20ms.wav,12,2,2,0,0,2,2,1,,,,,,,,,,52.087859708000906,50,52.098385499964934,,,,,,,,,,,jelle,001,2026-03-31_11h58.32.494,attack,,2026.1.2,2026-03-31 11h58.32.661407 +0200,
/Users/jellevanderwerff/workshop_2026/attack_experiment/resources/sequence_onramp_20ms.wav,12,2,2,0,0,2,2,1,,,,,,,,,,,,,52.107003874960355,52.098436667001806,52.09844983299263,52.107003874960355,55.11513495800318,55.08949758298695,,,,,jelle,001,2026-03-31_11h58.32.494,attack,,2026.1.2,2026-03-31 11h58.32.661407 +0200,
/Users/jellevanderwerff/workshop_2026/attack_experiment/resources/sequence_onramp_150ms.wav,12,3,3,0,0,3,3,4,55.11513495800318,,,,,,55.10413749999134,55.106110916651474,55.11513495800318,55.71433941699797,52,,,,,,,,,,,,jelle,001,2026-03-31_11h58.32.494,attack,,2026.1.2,2026-03-31 11h58.32.661407 +0200,
/Users/jellevanderwerff/workshop_2026/attack_experiment/resources/sequence_onramp_150ms.wav,12,3,3,0,0,3,3,4,,,,,,,,,,56.231693124980666,67,,,,,,,,,,,,jelle,001,2026-03-31_11h58.32.494,attack,,2026.1.2,2026-03-31 11h58.32.661407 +0200,
/Users/jellevanderwerff/workshop_2026/attack_experiment/resources/sequence_onramp_150ms.wav,12,3,3,0,0,3,3,4,,,,,,,,,,56.74828516697744,78,,,,,,,,,,,,jelle,001,2026-03-31_11h58.32.494,attack,,2026.1.2,2026-03-31 11h58.32.661407 +0200,
/Users/jellevanderwerff/workshop_2026/attack_experiment/resources/sequence_onramp_150ms.wav,12,3,3,0,0,3,3,4,,,,,,,,,,57.306917208014056,99,,,,,,,,,,,,jelle,001,2026-03-31_11h58.32.494,attack,,2026.1.2,2026-03-31 11h58.32.661407 +0200,
/Users/jellevanderwerff/workshop_2026/attack_experiment/resources/sequence_onramp_150ms.wav,12,3,3,0,0,3,3,4,,,,,,,,,,57.806012582965195,88,,,,,,,,,,,,jelle,001,2026-03-31_11h58.32.494,attack,,2026.1.2,2026-03-31 11h58.32.661407 +0200,
/Users/jellevanderwerff/workshop_2026/attack_experiment/resources/sequence_onramp_150ms.wav,12,3,3,0,0,3,3,4,,,,,,,,,,58.34846429200843,91,,,,,,,,,,,,jelle,001,2026-03-31_11h58.32.494,attack,,2026.1.2,2026-03-31 11h58.32.661407 +0200,
/Users/jellevanderwerff/workshop_2026/attack_experiment/resources/sequence_onramp_150ms.wav,12,3,3,0,0,3,3,4,,,,,,,,,,58.83160799997859,98,,,,,,,,,,,,jelle,001,2026-03-31_11h58.32.494,attack,,2026.1.2,2026-03-31 11h58.32.661407 +0200,
/Users/jellevanderwerff/workshop_2026/attack_experiment/resources/sequence_onramp_150ms.wav,12,3,3,0,0,3,3,4,,,,,,,,,,59.42335379199358,59,,,,,,,,,,,,jelle,001,2026-03-31_11h58.32.494,attack,,2026.1.2,2026-03-31 11h58.32.661407 +0200,
/Users/jellevanderwerff/workshop_2026/attack_experiment/resources/sequence_onramp_150ms.wav,12,3,3,0,0,3,3,4,,,,,,,,,,59.91530829196563,94,,,,,,,,,,,,jelle,001,2026-03-31_11h58.32.494,attack,,2026.1.2,2026-03-31 11h58.32.661407 +0200,
/Users/jellevanderwerff/workshop_2026/attack_experiment/resources/sequence_onramp_150ms.wav,12,3,3,0,0,3,3,4,,,,,,,,,,60.45686987496447,58,,,,,,,,,,,,jelle,001,2026-03-31_11h58.32.494,attack,,2026.1.2,2026-03-31 11h58.32.661407 +0200,
/Users/jellevanderwerff/workshop_2026/attack_experiment/resources/sequence_onramp_150ms.wav,12,3,3,0,0,3,3,4,,,,,,,,,,60.92362020799192,73,,,,,,,,,,,,jelle,001,2026-03-31_11h58.32.494,attack,,2026.1.2,2026-03-31 11h58.32.661407 +0200,
/Users/jellevanderwerff/workshop_2026/attack_experiment/resources/sequence_onramp_150ms.wav,12,3,3,0,0,3,3,4,,,,,,,,,,61.515261207998265,57,,,,,,,,,,,,jelle,001,2026-03-31_11h58.32.494,attack,,2026.1.2,2026-03-31 11h58.32.661407 +0200,
/Users/jellevanderwerff/workshop_2026/attack_experiment/resources/sequence_onramp_150ms.wav,12,3,3,0,0,3,3,4,,,,,,,,,,62.10698912496446,43,,,,,,,,,,,,jelle,001,2026-03-31_11h58.32.494,attack,,2026.1.2,2026-03-31 11h58.32.661407 +0200,
/Users/jellevanderwerff/workshop_2026/attack_experiment/resources/sequence_onramp_150ms.wav,12,3,3,0,0,3,3,4,,,,,,,,,,62.5897602919722,69,,,,,,,,,,,,jelle,001,2026-03-31_11h58.32.494,attack,,2026.1.2,2026-03-31 11h58.32.661407 +0200,
/Users/jellevanderwerff/workshop_2026/attack_experiment/resources/sequence_onramp_150ms.wav,12,3,3,0,0,3,3,4,,,,,,,,,,63.098513500008266,85,,,,,,,,,,,,jelle,001,2026-03-31_11h58.32.494,attack,,2026.1.2,2026-03-31 11h58.32.661407 +0200,
/Users/jellevanderwerff/workshop_2026/attack_experiment/resources/sequence_onramp_150ms.wav,12,3,3,0,0,3,3,4,,,,,,,,,,63.59791208297247,43,,,,,,,,,,,,jelle,001,2026-03-31_11h58.32.494,attack,,2026.1.2,2026-03-31 11h58.32.661407 +0200,
/Users/jellevanderwerff/workshop_2026/attack_experiment/resources/sequence_onramp_150ms.wav,12,3,3,0,0,3,3,4,,,,,,,,,,64.10682591696968,75,,,,,,,,,,,,jelle,001,2026-03-31_11h58.32.494,attack,,2026.1.2,2026-03-31 11h58.32.661407 +0200,
/Users/jellevanderwerff/workshop_2026/attack_experiment/resources/sequence_onramp_150ms.wav,12,3,3,0,0,3,3,4,,,,,,,,,,64.58125787496101,69,,,,,,,,,,,,jelle,001,2026-03-31_11h58.32.494,attack,,2026.1.2,2026-03-31 11h58.32.661407 +0200,
/Users/jellevanderwerff/workshop_2026/attack_experiment/resources/sequence_onramp_150ms.wav,12,3,3,0,0,3,3,4,,,,,,,,,,65.05650533299195,61,,,,,,,,,,,,jelle,001,2026-03-31_11h58.32.494,attack,,2026.1.2,2026-03-31 11h58.32.661407 +0200,
/Users/jellevanderwerff/workshop_2026/attack_experiment/resources/sequence_onramp_150ms.wav,12,3,3,0,0,3,3,4,,,,,,,,,,65.53098624997074,51,,,,,,,,,,,,jelle,001,2026-03-31_11h58.32.494,attack,,2026.1.2,2026-03-31 11h58.32.661407 +0200,
/Users/jellevanderwerff/workshop_2026/attack_experiment/resources/sequence_onramp_150ms.wav,12,3,3,0,0,3,3,4,,,,,,,,,,66.01513033296214,49,,,,,,,,,,,,jelle,001,2026-03-31_11h58.32.494,attack,,2026.1.2,2026-03-31 11h58.32.661407 +0200,
/Users/jellevanderwerff/workshop_2026/attack_experiment/resources/sequence_onramp_150ms.wav,12,3,3,0,0,3,3,4,,,,,,,,,,66.56418541696621,32,,,,,,,,,,,,jelle,001,2026-03-31_11h58.32.494,attack,,2026.1.2,2026-03-31 11h58.32.661407 +0200,
/Users/jellevanderwerff/workshop_2026/attack_experiment/resources/sequence_onramp_150ms.wav,12,3,3,0,0,3,3,4,,,,,,,,,,67.04847129195696,49,,,,,,,,,,,,jelle,001,2026-03-31_11h58.32.494,attack,,2026.1.2,2026-03-31 11h58.32.661407 +0200,
/Users/jellevanderwerff/workshop_2026/attack_experiment/resources/sequence_onramp_150ms.wav,12,3,3,0,0,3,3,4,,,,,,,,,,,,67.11002954200376,67.11561412498122,67.11009124998236,67.1101032079896,67.11561412498122,70.13172191695776,70.10689304198604,,,,,jelle,001,2026-03-31_11h58.32.494,attack,,2026.1.2,2026-03-31 11h58.32.661407 +0200,
/Users/jellevanderwerff/workshop_2026/attack_experiment/resources/sequence_onramp_50ms.wav,12,4,4,0,0,4,4,2,70.13172191695776,,,,,,70.12082979199477,70.12350574962717,70.13172191695776,70.7318352079601,32,,,,,,,,,,,,jelle,001,2026-03-31_11h58.32.494,attack,,2026.1.2,2026-03-31 11h58.32.661407 +0200,
/Users/jellevanderwerff/workshop_2026/attack_experiment/resources/sequence_onramp_50ms.wav,12,4,4,0,0,4,4,2,,,,,,,,,,71.27251608297229,50,,,,,,,,,,,,jelle,001,2026-03-31_11h58.32.494,attack,,2026.1.2,2026-03-31 11h58.32.661407 +0200,
/Users/jellevanderwerff/workshop_2026/attack_experiment/resources/sequence_onramp_50ms.wav,12,4,4,0,0,4,4,2,,,,,,,,,,71.8481577920029,50,,,,,,,,,,,,jelle,001,2026-03-31_11h58.32.494,attack,,2026.1.2,2026-03-31 11h58.32.661407 +0200,
/Users/jellevanderwerff/workshop_2026/attack_experiment/resources/sequence_onramp_50ms.wav,12,4,4,0,0,4,4,2,,,,,,,,,,72.34841016697465,61,,,,,,,,,,,,jelle,001,2026-03-31_11h58.32.494,attack,,2026.1.2,2026-03-31 11h58.32.661407 +0200,
/Users/jellevanderwerff/workshop_2026/attack_experiment/resources/sequence_onramp_50ms.wav,12,4,4,0,0,4,4,2,,,,,,,,,,72.90561600000365,53,,,,,,,,,,,,jelle,001,2026-03-31_11h58.32.494,attack,,2026.1.2,2026-03-31 11h58.32.661407 +0200,
/Users/jellevanderwerff/workshop_2026/attack_experiment/resources/sequence_onramp_50ms.wav,12,4,4,0,0,4,4,2,,,,,,,,,,73.41529433301184,59,,,,,,,,,,,,jelle,001,2026-03-31_11h58.32.494,attack,,2026.1.2,2026-03-31 11h58.32.661407 +0200,
/Users/jellevanderwerff/workshop_2026/attack_experiment/resources/sequence_onramp_50ms.wav,12,4,4,0,0,4,4,2,,,,,,,,,,73.93138287495822,58,,,,,,,,,,,,jelle,001,2026-03-31_11h58.32.494,attack,,2026.1.2,2026-03-31 11h58.32.661407 +0200,
/Users/jellevanderwerff/workshop_2026/attack_experiment/resources/sequence_onramp_50ms.wav,12,4,4,0,0,4,4,2,,,,,,,,,,74.44024720799644,55,,,,,,,,,,,,jelle,001,2026-03-31_11h58.32.494,attack,,2026.1.2,2026-03-31 11h58.32.661407 +0200,
/Users/jellevanderwerff/workshop_2026/attack_experiment/resources/sequence_onramp_50ms.wav,12,4,4,0,0,4,4,2,,,,,,,,,,74.94747662497684,46,,,,,,,,,,,,jelle,001,2026-03-31_11h58.32.494,attack,,2026.1.2,2026-03-31 11h58.32.661407 +0200,
/Users/jellevanderwerff/workshop_2026/attack_experiment/resources/sequence_onramp_50ms.wav,12,4,4,0,0,4,4,2,,,,,,,,,,75.43156875000568,53,,,,,,,,,,,,jelle,001,2026-03-31_11h58.32.494,attack,,2026.1.2,2026-03-31 11h58.32.661407 +0200,
/Users/jellevanderwerff/workshop_2026/attack_experiment/resources/sequence_onramp_50ms.wav,12,4,4,0,0,4,4,2,,,,,,,,,,75.91419904195936,47,,,,,,,,,,,,jelle,001,2026-03-31_11h58.32.494,attack,,2026.1.2,2026-03-31 11h58.32.661407 +0200,
/Users/jellevanderwerff/workshop_2026/attack_experiment/resources/sequence_onramp_50ms.wav,12,4,4,0,0,4,4,2,,,,,,,,,,76.43182595795952,44,,,,,,,,,,,,jelle,001,2026-03-31_11h58.32.494,attack,,2026.1.2,2026-03-31 11h58.32.661407 +0200,
/Users/jellevanderwerff/workshop_2026/attack_experiment/resources/sequence_onramp_50ms.wav,12,4,4,0,0,4,4,2,,,,,,,,,,76.93181366700446,36,,,,,,,,,,,,jelle,001,2026-03-31_11h58.32.494,attack,,2026.1.2,2026-03-31 11h58.32.661407 +0200,
/Users/jellevanderwerff/workshop_2026/attack_experiment/resources/sequence_onramp_50ms.wav,12,4,4,0,0,4,4,2,,,,,,,,,,77.43119724997086,35,,,,,,,,,,,,jelle,001,2026-03-31_11h58.32.494,attack,,2026.1.2,2026-03-31 11h58.32.661407 +0200,
/Users/jellevanderwerff/workshop_2026/attack_experiment/resources/sequence_onramp_50ms.wav,12,4,4,0,0,4,4,2,,,,,,,,,,77.90672954201,39,,,,,,,,,,,,jelle,001,2026-03-31_11h58.32.494,attack,,2026.1.2,2026-03-31 11h58.32.661407 +0200,
/Users/jellevanderwerff/workshop_2026/attack_experiment/resources/sequence_onramp_50ms.wav,12,4,4,0,0,4,4,2,,,,,,,,,,78.381974082964,47,,,,,,,,,,,,jelle,001,2026-03-31_11h58.32.494,attack,,2026.1.2,2026-03-31 11h58.32.661407 +0200,
/Users/jellevanderwerff/workshop_2026/attack_experiment/resources/sequence_onramp_50ms.wav,12,4,4,0,0,4,4,2,,,,,,,,,,78.9403445419739,41,,,,,,,,,,,,jelle,001,2026-03-31_11h58.32.494,attack,,2026.1.2,2026-03-31 11h58.32.661407 +0200,
/Users/jellevanderwerff/workshop_2026/attack_experiment/resources/sequence_onramp_50ms.wav,12,4,4,0,0,4,4,2,,,,,,,,,,79.41504412499489,44,,,,,,,,,,,,jelle,001,2026-03-31_11h58.32.494,attack,,2026.1.2,2026-03-31 11h58.32.661407 +0200,
/Users/jellevanderwerff/workshop_2026/attack_experiment/resources/sequence_onramp_50ms.wav,12,4,4,0,0,4,4,2,,,,,,,,,,79.89004520798335,32,,,,,,,,,,,,jelle,001,2026-03-31_11h58.32.494,attack,,2026.1.2,2026-03-31 11h58.32.661407 +0200,
/Users/jellevanderwerff/workshop_2026/attack_experiment/resources/sequence_onramp_50ms.wav,12,4,4,0,0,4,4,2,,,,,,,,,,80.36444866698002,44,,,,,,,,,,,,jelle,001,2026-03-31_11h58.32.494,attack,,2026.1.2,2026-03-31 11h58.32.661407 +0200,
/Users/jellevanderwerff/workshop_2026/attack_experiment/resources/sequence_onramp_50ms.wav,12,4,4,0,0,4,4,2,,,,,,,,,,80.87362137500895,44,,,,,,,,,,,,jelle,001,2026-03-31_11h58.32.494,attack,,2026.1.2,2026-03-31 11h58.32.661407 +0200,
/Users/jellevanderwerff/workshop_2026/attack_experiment/resources/sequence_onramp_50ms.wav,12,4,4,0,0,4,4,2,,,,,,,,,,81.36444466700777,47,,,,,,,,,,,,jelle,001,2026-03-31_11h58.32.494,attack,,2026.1.2,2026-03-31 11h58.32.661407 +0200,
/Users/jellevanderwerff/workshop_2026/attack_experiment/resources/sequence_onramp_50ms.wav,12,4,4,0,0,4,4,2,,,,,,,,,,81.88184424996143,48,,,,,,,,,,,,jelle,001,2026-03-31_11h58.32.494,attack,,2026.1.2,2026-03-31 11h58.32.661407 +0200,
/Users/jellevanderwerff/workshop_2026/attack_experiment/resources/sequence_onramp_50ms.wav,12,4,4,0,0,4,4,2,,,,,,,,,,,,82.12435254198499,82.13185295800213,82.12441179197049,82.12442374997772,82.13185295800213,85.13454787497176,85.11524149996694,,,,,jelle,001,2026-03-31_11h58.32.494,attack,,2026.1.2,2026-03-31 11h58.32.661407 +0200,
/Users/jellevanderwerff/workshop_2026/attack_experiment/resources/sequence_onramp_200ms.wav,12,5,5,0,0,5,5,5,85.13454787497176,,,,,,85.12845949997427,85.1318522916447,85.13454787497176,85.73092429200187,45,,,,,,,,,,,,jelle,001,2026-03-31_11h58.32.494,attack,,2026.1.2,2026-03-31 11h58.32.661407 +0200,
/Users/jellevanderwerff/workshop_2026/attack_experiment/resources/sequence_onramp_200ms.wav,12,5,5,0,0,5,5,5,,,,,,,,,,86.28162641701056,58,,,,,,,,,,,,jelle,001,2026-03-31_11h58.32.494,attack,,2026.1.2,2026-03-31 11h58.32.661407 +0200,
/Users/jellevanderwerff/workshop_2026/attack_experiment/resources/sequence_onramp_200ms.wav,12,5,5,0,0,5,5,5,,,,,,,,,,86.86506883299444,75,,,,,,,,,,,,jelle,001,2026-03-31_11h58.32.494,attack,,2026.1.2,2026-03-31 11h58.32.661407 +0200,
/Users/jellevanderwerff/workshop_2026/attack_experiment/resources/sequence_onramp_200ms.wav,12,5,5,0,0,5,5,5,,,,,,,,,,87.41443562495988,87,,,,,,,,,,,,jelle,001,2026-03-31_11h58.32.494,attack,,2026.1.2,2026-03-31 11h58.32.661407 +0200,
/Users/jellevanderwerff/workshop_2026/attack_experiment/resources/sequence_onramp_200ms.wav,12,5,5,0,0,5,5,5,,,,,,,,,,87.9234192079748,86,,,,,,,,,,,,jelle,001,2026-03-31_11h58.32.494,attack,,2026.1.2,2026-03-31 11h58.32.661407 +0200,
/Users/jellevanderwerff/workshop_2026/attack_experiment/resources/sequence_onramp_200ms.wav,12,5,5,0,0,5,5,5,,,,,,,,,,88.42339524999261,46,,,,,,,,,,,,jelle,001,2026-03-31_11h58.32.494,attack,,2026.1.2,2026-03-31 11h58.32.661407 +0200,
/Users/jellevanderwerff/workshop_2026/attack_experiment/resources/sequence_onramp_200ms.wav,12,5,5,0,0,5,5,5,,,,,,,,,,88.90581458300585,70,,,,,,,,,,,,jelle,001,2026-03-31_11h58.32.494,attack,,2026.1.2,2026-03-31 11h58.32.661407 +0200,
/Users/jellevanderwerff/workshop_2026/attack_experiment/resources/sequence_onramp_200ms.wav,12,5,5,0,0,5,5,5,,,,,,,,,,89.45608724997146,32,,,,,,,,,,,,jelle,001,2026-03-31_11h58.32.494,attack,,2026.1.2,2026-03-31 11h58.32.661407 +0200,
/Users/jellevanderwerff/workshop_2026/attack_experiment/resources/sequence_onramp_200ms.wav,12,5,5,0,0,5,5,5,,,,,,,,,,89.94731691700872,34,,,,,,,,,,,,jelle,001,2026-03-31_11h58.32.494,attack,,2026.1.2,2026-03-31 11h58.32.661407 +0200,
/Users/jellevanderwerff/workshop_2026/attack_experiment/resources/sequence_onramp_200ms.wav,12,5,5,0,0,5,5,5,,,,,,,,,,90.43968687497545,37,,,,,,,,,,,,jelle,001,2026-03-31_11h58.32.494,attack,,2026.1.2,2026-03-31 11h58.32.661407 +0200,
/Users/jellevanderwerff/workshop_2026/attack_experiment/resources/sequence_onramp_200ms.wav,12,5,5,0,0,5,5,5,,,,,,,,,,90.87383616698207,70,,,,,,,,,,,,jelle,001,2026-03-31_11h58.32.494,attack,,2026.1.2,2026-03-31 11h58.32.661407 +0200,
/Users/jellevanderwerff/workshop_2026/attack_experiment/resources/sequence_onramp_200ms.wav,12,5,5,0,0,5,5,5,,,,,,,,,,91.33893874997739,29,,,,,,,,,,,,jelle,001,2026-03-31_11h58.32.494,attack,,2026.1.2,2026-03-31 11h58.32.661407 +0200,
/Users/jellevanderwerff/workshop_2026/attack_experiment/resources/sequence_onramp_200ms.wav,12,5,5,0,0,5,5,5,,,,,,,,,,91.84014354198007,62,,,,,,,,,,,,jelle,001,2026-03-31_11h58.32.494,attack,,2026.1.2,2026-03-31 11h58.32.661407 +0200,
/Users/jellevanderwerff/workshop_2026/attack_experiment/resources/sequence_onramp_200ms.wav,12,5,5,0,0,5,5,5,,,,,,,,,,92.33125437499257,30,,,,,,,,,,,,jelle,001,2026-03-31_11h58.32.494,attack,,2026.1.2,2026-03-31 11h58.32.661407 +0200,
/Users/jellevanderwerff/workshop_2026/attack_experiment/resources/sequence_onramp_200ms.wav,12,5,5,0,0,5,5,5,,,,,,,,,,92.8320701670018,53,,,,,,,,,,,,jelle,001,2026-03-31_11h58.32.494,attack,,2026.1.2,2026-03-31 11h58.32.661407 +0200,
/Users/jellevanderwerff/workshop_2026/attack_experiment/resources/sequence_onramp_200ms.wav,12,5,5,0,0,5,5,5,,,,,,,,,,93.34775725001236,28,,,,,,,,,,,,jelle,001,2026-03-31_11h58.32.494,attack,,2026.1.2,2026-03-31 11h58.32.661407 +0200,
/Users/jellevanderwerff/workshop_2026/attack_experiment/resources/sequence_onramp_200ms.wav,12,5,5,0,0,5,5,5,,,,,,,,,,93.88154699996812,53,,,,,,,,,,,,jelle,001,2026-03-31_11h58.32.494,attack,,2026.1.2,2026-03-31 11h58.32.661407 +0200,
/Users/jellevanderwerff/workshop_2026/attack_experiment/resources/sequence_onramp_200ms.wav,12,5,5,0,0,5,5,5,,,,,,,,,,94.36507658299524,25,,,,,,,,,,,,jelle,001,2026-03-31_11h58.32.494,attack,,2026.1.2,2026-03-31 11h58.32.661407 +0200,
/Users/jellevanderwerff/workshop_2026/attack_experiment/resources/sequence_onramp_200ms.wav,12,5,5,0,0,5,5,5,,,,,,,,,,94.86518391699065,51,,,,,,,,,,,,jelle,001,2026-03-31_11h58.32.494,attack,,2026.1.2,2026-03-31 11h58.32.661407 +0200,
/Users/jellevanderwerff/workshop_2026/attack_experiment/resources/sequence_onramp_200ms.wav,12,5,5,0,0,5,5,5,,,,,,,,,,95.32292895799037,17,,,,,,,,,,,,jelle,001,2026-03-31_11h58.32.494,attack,,2026.1.2,2026-03-31 11h58.32.661407 +0200,
/Users/jellevanderwerff/workshop_2026/attack_experiment/resources/sequence_onramp_200ms.wav,12,5,5,0,0,5,5,5,,,,,,,,,,95.85675958299544,87,,,,,,,,,,,,jelle,001,2026-03-31_11h58.32.494,attack,,2026.1.2,2026-03-31 11h58.32.661407 +0200,
/Users/jellevanderwerff/workshop_2026/attack_experiment/resources/sequence_onramp_200ms.wav,12,5,5,0,0,5,5,5,,,,,,,,,,96.3639090419747,17,,,,,,,,,,,,jelle,001,2026-03-31_11h58.32.494,attack,,2026.1.2,2026-03-31 11h58.32.661407 +0200,
/Users/jellevanderwerff/workshop_2026/attack_experiment/resources/sequence_onramp_200ms.wav,12,5,5,0,0,5,5,5,,,,,,,,,,96.85621662496123,89,,,,,,,,,,,,jelle,001,2026-03-31_11h58.32.494,attack,,2026.1.2,2026-03-31 11h58.32.661407 +0200,
/Users/jellevanderwerff/workshop_2026/attack_experiment/resources/sequence_onramp_200ms.wav,12,5,5,0,0,5,5,5,,,,,,,,,,,,97.14006912498735,97.14820491697174,97.14013750001322,97.14015316701261,97.14820491697174,100.14025216700975,100.13190029200632,,,,,jelle,001,2026-03-31_11h58.32.494,attack,,2026.1.2,2026-03-31 11h58.32.661407 +0200,
,,,,,,,,,,,,,,,,,,,,,,,,,,,100.13194283295888,100.14025216700975,101.13133062497946,101.12363470799755,jelle,001,2026-03-31_11h58.32.494,attack,,2026.1.2,2026-03-31 11h58.32.661407 +0200,
