fileName,playLength,thisN,thisTrialN,thisRepN,trials.thisRepN,trials.thisTrialN,trials.thisN,trials.thisIndex,thisRow.t,notes,piloting,get_ready.started,text.started,get_ready.stopped,trial.started,stimulus.started,start_tapping.started,resp.time,resp.velocity,stimulus.stopped,start_tapping.stopped,trial.stopped,ITI.started,stop_tapping.started,stop_tapping.stopped,ITI.stopped,end_exp.started,thankyou.started,thankyou.stopped,end_exp.stopped,participant,session,date,expName,expVersion,psychopyVersion,expStart,
,,,,,,,,,,,False,0.02407229196978733,0.04128258296987042,10.004492832988035,,,,,,,,,,,,,,,,,jelle2,001,2026-03-31_12h00.54.510,attack,,2026.1.2,2026-03-31 12h00.54.675130 +0200,
/Users/jellevanderwerff/workshop_2026/attack_experiment/resources/sequence_onramp_50ms.wav,12,0,0,0,0,0,0,2,10.038066042005084,,,,,,10.022737624996807,10.037784291322655,10.038066042005084,10.904208416992333,17,,,,,,,,,,,,jelle2,001,2026-03-31_12h00.54.510,attack,,2026.1.2,2026-03-31 12h00.54.675130 +0200,
/Users/jellevanderwerff/workshop_2026/attack_experiment/resources/sequence_onramp_50ms.wav,12,0,0,0,0,0,0,2,,,,,,,,,,11.386937999981456,49,,,,,,,,,,,,jelle2,001,2026-03-31_12h00.54.510,attack,,2026.1.2,2026-03-31 12h00.54.675130 +0200,
/Users/jellevanderwerff/workshop_2026/attack_experiment/resources/sequence_onramp_50ms.wav,12,0,0,0,0,0,0,2,,,,,,,,,,11.870875416963827,49,,,,,,,,,,,,jelle2,001,2026-03-31_12h00.54.510,attack,,2026.1.2,2026-03-31 12h00.54.675130 +0200,
/Users/jellevanderwerff/workshop_2026/attack_experiment/resources/sequence_onramp_50ms.wav,12,0,0,0,0,0,0,2,,,,,,,,,,12.495758999953978,52,,,,,,,,,,,,jelle2,001,2026-03-31_12h00.54.510,attack,,2026.1.2,2026-03-31 12h00.54.675130 +0200,
/Users/jellevanderwerff/workshop_2026/attack_experiment/resources/sequence_onramp_50ms.wav,12,0,0,0,0,0,0,2,,,,,,,,,,13.045548666967079,77,,,,,,,,,,,,jelle2,001,2026-03-31_12h00.54.510,attack,,2026.1.2,2026-03-31 12h00.54.675130 +0200,
/Users/jellevanderwerff/workshop_2026/attack_experiment/resources/sequence_onramp_50ms.wav,12,0,0,0,0,0,0,2,,,,,,,,,,13.570975874958094,75,,,,,,,,,,,,jelle2,001,2026-03-31_12h00.54.510,attack,,2026.1.2,2026-03-31 12h00.54.675130 +0200,
/Users/jellevanderwerff/workshop_2026/attack_experiment/resources/sequence_onramp_50ms.wav,12,0,0,0,0,0,0,2,,,,,,,,,,14.112175124988426,68,,,,,,,,,,,,jelle2,001,2026-03-31_12h00.54.510,attack,,2026.1.2,2026-03-31 12h00.54.675130 +0200,
/Users/jellevanderwerff/workshop_2026/attack_experiment/resources/sequence_onramp_50ms.wav,12,0,0,0,0,0,0,2,,,,,,,,,,14.55381720798323,55,,,,,,,,,,,,jelle2,001,2026-03-31_12h00.54.510,attack,,2026.1.2,2026-03-31 12h00.54.675130 +0200,
/Users/jellevanderwerff/workshop_2026/attack_experiment/resources/sequence_onramp_50ms.wav,12,0,0,0,0,0,0,2,,,,,,,,,,15.079210083000362,46,,,,,,,,,,,,jelle2,001,2026-03-31_12h00.54.510,attack,,2026.1.2,2026-03-31 12h00.54.675130 +0200,
/Users/jellevanderwerff/workshop_2026/attack_experiment/resources/sequence_onramp_50ms.wav,12,0,0,0,0,0,0,2,,,,,,,,,,15.545308749948163,45,,,,,,,,,,,,jelle2,001,2026-03-31_12h00.54.510,attack,,2026.1.2,2026-03-31 12h00.54.675130 +0200,
/Users/jellevanderwerff/workshop_2026/attack_experiment/resources/sequence_onramp_50ms.wav,12,0,0,0,0,0,0,2,,,,,,,,,,16.08672966697486,48,,,,,,,,,,,,jelle2,001,2026-03-31_12h00.54.510,attack,,2026.1.2,2026-03-31 12h00.54.675130 +0200,
/Users/jellevanderwerff/workshop_2026/attack_experiment/resources/sequence_onramp_50ms.wav,12,0,0,0,0,0,0,2,,,,,,,,,,16.60361854196526,42,,,,,,,,,,,,jelle2,001,2026-03-31_12h00.54.510,attack,,2026.1.2,2026-03-31 12h00.54.675130 +0200,
/Users/jellevanderwerff/workshop_2026/attack_experiment/resources/sequence_onramp_50ms.wav,12,0,0,0,0,0,0,2,,,,,,,,,,17.045443291950505,43,,,,,,,,,,,,jelle2,001,2026-03-31_12h00.54.510,attack,,2026.1.2,2026-03-31 12h00.54.675130 +0200,
/Users/jellevanderwerff/workshop_2026/attack_experiment/resources/sequence_onramp_50ms.wav,12,0,0,0,0,0,0,2,,,,,,,,,,17.5450889999629,49,,,,,,,,,,,,jelle2,001,2026-03-31_12h00.54.510,attack,,2026.1.2,2026-03-31 12h00.54.675130 +0200,
/Users/jellevanderwerff/workshop_2026/attack_experiment/resources/sequence_onramp_50ms.wav,12,0,0,0,0,0,0,2,,,,,,,,,,18.1703888750053,118,,,,,,,,,,,,jelle2,001,2026-03-31_12h00.54.510,attack,,2026.1.2,2026-03-31 12h00.54.675130 +0200,
/Users/jellevanderwerff/workshop_2026/attack_experiment/resources/sequence_onramp_50ms.wav,12,0,0,0,0,0,0,2,,,,,,,,,,18.679055249958765,56,,,,,,,,,,,,jelle2,001,2026-03-31_12h00.54.510,attack,,2026.1.2,2026-03-31 12h00.54.675130 +0200,
/Users/jellevanderwerff/workshop_2026/attack_experiment/resources/sequence_onramp_50ms.wav,12,0,0,0,0,0,0,2,,,,,,,,,,19.179454791999888,81,,,,,,,,,,,,jelle2,001,2026-03-31_12h00.54.510,attack,,2026.1.2,2026-03-31 12h00.54.675130 +0200,
/Users/jellevanderwerff/workshop_2026/attack_experiment/resources/sequence_onramp_50ms.wav,12,0,0,0,0,0,0,2,,,,,,,,,,19.66175899998052,68,,,,,,,,,,,,jelle2,001,2026-03-31_12h00.54.510,attack,,2026.1.2,2026-03-31 12h00.54.675130 +0200,
/Users/jellevanderwerff/workshop_2026/attack_experiment/resources/sequence_onramp_50ms.wav,12,0,0,0,0,0,0,2,,,,,,,,,,20.13662404200295,85,,,,,,,,,,,,jelle2,001,2026-03-31_12h00.54.510,attack,,2026.1.2,2026-03-31 12h00.54.675130 +0200,
/Users/jellevanderwerff/workshop_2026/attack_experiment/resources/sequence_onramp_50ms.wav,12,0,0,0,0,0,0,2,,,,,,,,,,20.587323582964018,96,,,,,,,,,,,,jelle2,001,2026-03-31_12h00.54.510,attack,,2026.1.2,2026-03-31 12h00.54.675130 +0200,
/Users/jellevanderwerff/workshop_2026/attack_experiment/resources/sequence_onramp_50ms.wav,12,0,0,0,0,0,0,2,,,,,,,,,,21.054223874991294,94,,,,,,,,,,,,jelle2,001,2026-03-31_12h00.54.510,attack,,2026.1.2,2026-03-31 12h00.54.675130 +0200,
/Users/jellevanderwerff/workshop_2026/attack_experiment/resources/sequence_onramp_50ms.wav,12,0,0,0,0,0,0,2,,,,,,,,,,21.54491420800332,103,,,,,,,,,,,,jelle2,001,2026-03-31_12h00.54.510,attack,,2026.1.2,2026-03-31 12h00.54.675130 +0200,
/Users/jellevanderwerff/workshop_2026/attack_experiment/resources/sequence_onramp_50ms.wav,12,0,0,0,0,0,0,2,,,,,,,,,,,,22.04881112498697,22.04881112498697,22.04246729199076,22.042482832970563,22.04881112498697,25.066840082989074,25.03344633296365,,,,,jelle2,001,2026-03-31_12h00.54.510,attack,,2026.1.2,2026-03-31 12h00.54.675130 +0200,
/Users/jellevanderwerff/workshop_2026/attack_experiment/resources/sequence_onramp_150ms.wav,12,1,1,0,0,1,1,4,25.066840082989074,,,,,,25.0495454579941,25.050046541615544,25.066840082989074,25.04963849997148,69,,,,,,,,,,,,jelle2,001,2026-03-31_12h00.54.510,attack,,2026.1.2,2026-03-31 12h00.54.675130 +0200,
/Users/jellevanderwerff/workshop_2026/attack_experiment/resources/sequence_onramp_150ms.wav,12,1,1,0,0,1,1,4,,,,,,,,,,25.62464795797132,71,,,,,,,,,,,,jelle2,001,2026-03-31_12h00.54.510,attack,,2026.1.2,2026-03-31 12h00.54.675130 +0200,
/Users/jellevanderwerff/workshop_2026/attack_experiment/resources/sequence_onramp_150ms.wav,12,1,1,0,0,1,1,4,,,,,,,,,,26.141533457965124,84,,,,,,,,,,,,jelle2,001,2026-03-31_12h00.54.510,attack,,2026.1.2,2026-03-31 12h00.54.675130 +0200,
/Users/jellevanderwerff/workshop_2026/attack_experiment/resources/sequence_onramp_150ms.wav,12,1,1,0,0,1,1,4,,,,,,,,,,26.683181374974083,72,,,,,,,,,,,,jelle2,001,2026-03-31_12h00.54.510,attack,,2026.1.2,2026-03-31 12h00.54.675130 +0200,
/Users/jellevanderwerff/workshop_2026/attack_experiment/resources/sequence_onramp_150ms.wav,12,1,1,0,0,1,1,4,,,,,,,,,,27.18312199995853,87,,,,,,,,,,,,jelle2,001,2026-03-31_12h00.54.510,attack,,2026.1.2,2026-03-31 12h00.54.675130 +0200,
/Users/jellevanderwerff/workshop_2026/attack_experiment/resources/sequence_onramp_150ms.wav,12,1,1,0,0,1,1,4,,,,,,,,,,27.683205124980304,102,,,,,,,,,,,,jelle2,001,2026-03-31_12h00.54.510,attack,,2026.1.2,2026-03-31 12h00.54.675130 +0200,
/Users/jellevanderwerff/workshop_2026/attack_experiment/resources/sequence_onramp_150ms.wav,12,1,1,0,0,1,1,4,,,,,,,,,,28.166647624981124,76,,,,,,,,,,,,jelle2,001,2026-03-31_12h00.54.510,attack,,2026.1.2,2026-03-31 12h00.54.675130 +0200,
/Users/jellevanderwerff/workshop_2026/attack_experiment/resources/sequence_onramp_150ms.wav,12,1,1,0,0,1,1,4,,,,,,,,,,28.633339624968357,71,,,,,,,,,,,,jelle2,001,2026-03-31_12h00.54.510,attack,,2026.1.2,2026-03-31 12h00.54.675130 +0200,
/Users/jellevanderwerff/workshop_2026/attack_experiment/resources/sequence_onramp_150ms.wav,12,1,1,0,0,1,1,4,,,,,,,,,,29.11646224994911,74,,,,,,,,,,,,jelle2,001,2026-03-31_12h00.54.510,attack,,2026.1.2,2026-03-31 12h00.54.675130 +0200,
/Users/jellevanderwerff/workshop_2026/attack_experiment/resources/sequence_onramp_150ms.wav,12,1,1,0,0,1,1,4,,,,,,,,,,29.63340737496037,61,,,,,,,,,,,,jelle2,001,2026-03-31_12h00.54.510,attack,,2026.1.2,2026-03-31 12h00.54.675130 +0200,
/Users/jellevanderwerff/workshop_2026/attack_experiment/resources/sequence_onramp_150ms.wav,12,1,1,0,0,1,1,4,,,,,,,,,,30.20839308295399,83,,,,,,,,,,,,jelle2,001,2026-03-31_12h00.54.510,attack,,2026.1.2,2026-03-31 12h00.54.675130 +0200,
/Users/jellevanderwerff/workshop_2026/attack_experiment/resources/sequence_onramp_150ms.wav,12,1,1,0,0,1,1,4,,,,,,,,,,30.70776791695971,73,,,,,,,,,,,,jelle2,001,2026-03-31_12h00.54.510,attack,,2026.1.2,2026-03-31 12h00.54.675130 +0200,
/Users/jellevanderwerff/workshop_2026/attack_experiment/resources/sequence_onramp_150ms.wav,12,1,1,0,0,1,1,4,,,,,,,,,,31.216694707982242,70,,,,,,,,,,,,jelle2,001,2026-03-31_12h00.54.510,attack,,2026.1.2,2026-03-31 12h00.54.675130 +0200,
/Users/jellevanderwerff/workshop_2026/attack_experiment/resources/sequence_onramp_150ms.wav,12,1,1,0,0,1,1,4,,,,,,,,,,31.874458957987372,53,,,,,,,,,,,,jelle2,001,2026-03-31_12h00.54.510,attack,,2026.1.2,2026-03-31 12h00.54.675130 +0200,
/Users/jellevanderwerff/workshop_2026/attack_experiment/resources/sequence_onramp_150ms.wav,12,1,1,0,0,1,1,4,,,,,,,,,,32.349675832956564,76,,,,,,,,,,,,jelle2,001,2026-03-31_12h00.54.510,attack,,2026.1.2,2026-03-31 12h00.54.675130 +0200,
/Users/jellevanderwerff/workshop_2026/attack_experiment/resources/sequence_onramp_150ms.wav,12,1,1,0,0,1,1,4,,,,,,,,,,32.8498616249999,44,,,,,,,,,,,,jelle2,001,2026-03-31_12h00.54.510,attack,,2026.1.2,2026-03-31 12h00.54.675130 +0200,
/Users/jellevanderwerff/workshop_2026/attack_experiment/resources/sequence_onramp_150ms.wav,12,1,1,0,0,1,1,4,,,,,,,,,,33.39151149999816,58,,,,,,,,,,,,jelle2,001,2026-03-31_12h00.54.510,attack,,2026.1.2,2026-03-31 12h00.54.675130 +0200,
/Users/jellevanderwerff/workshop_2026/attack_experiment/resources/sequence_onramp_150ms.wav,12,1,1,0,0,1,1,4,,,,,,,,,,33.916622082993854,62,,,,,,,,,,,,jelle2,001,2026-03-31_12h00.54.510,attack,,2026.1.2,2026-03-31 12h00.54.675130 +0200,
/Users/jellevanderwerff/workshop_2026/attack_experiment/resources/sequence_onramp_150ms.wav,12,1,1,0,0,1,1,4,,,,,,,,,,34.44157612498384,44,,,,,,,,,,,,jelle2,001,2026-03-31_12h00.54.510,attack,,2026.1.2,2026-03-31 12h00.54.675130 +0200,
/Users/jellevanderwerff/workshop_2026/attack_experiment/resources/sequence_onramp_150ms.wav,12,1,1,0,0,1,1,4,,,,,,,,,,34.991682666994166,55,,,,,,,,,,,,jelle2,001,2026-03-31_12h00.54.510,attack,,2026.1.2,2026-03-31 12h00.54.675130 +0200,
/Users/jellevanderwerff/workshop_2026/attack_experiment/resources/sequence_onramp_150ms.wav,12,1,1,0,0,1,1,4,,,,,,,,,,35.583374207955785,71,,,,,,,,,,,,jelle2,001,2026-03-31_12h00.54.510,attack,,2026.1.2,2026-03-31 12h00.54.675130 +0200,
/Users/jellevanderwerff/workshop_2026/attack_experiment/resources/sequence_onramp_150ms.wav,12,1,1,0,0,1,1,4,,,,,,,,,,36.16586474998621,77,,,,,,,,,,,,jelle2,001,2026-03-31_12h00.54.510,attack,,2026.1.2,2026-03-31 12h00.54.675130 +0200,
/Users/jellevanderwerff/workshop_2026/attack_experiment/resources/sequence_onramp_150ms.wav,12,1,1,0,0,1,1,4,,,,,,,,,,36.691701207950246,64,,,,,,,,,,,,jelle2,001,2026-03-31_12h00.54.510,attack,,2026.1.2,2026-03-31 12h00.54.675130 +0200,
/Users/jellevanderwerff/workshop_2026/attack_experiment/resources/sequence_onramp_150ms.wav,12,1,1,0,0,1,1,4,,,,,,,,,,,,37.04959220800083,37.0583934999886,37.04964454198489,37.049655582988635,37.0583934999886,40.07086504198378,40.04511241696309,,,,,jelle2,001,2026-03-31_12h00.54.510,attack,,2026.1.2,2026-03-31 12h00.54.675130 +0200,
/Users/jellevanderwerff/workshop_2026/attack_experiment/resources/sequence_onramp_20ms.wav,12,2,2,0,0,2,2,1,40.07086504198378,,,,,,40.06001924996963,40.061722666669326,40.07086504198378,40.070928125001956,78,,,,,,,,,,,,jelle2,001,2026-03-31_12h00.54.510,attack,,2026.1.2,2026-03-31 12h00.54.675130 +0200,
/Users/jellevanderwerff/workshop_2026/attack_experiment/resources/sequence_onramp_20ms.wav,12,2,2,0,0,2,2,1,,,,,,,,,,40.741709875001106,43,,,,,,,,,,,,jelle2,001,2026-03-31_12h00.54.510,attack,,2026.1.2,2026-03-31 12h00.54.675130 +0200,
/Users/jellevanderwerff/workshop_2026/attack_experiment/resources/sequence_onramp_20ms.wav,12,2,2,0,0,2,2,1,,,,,,,,,,41.19173762499122,51,,,,,,,,,,,,jelle2,001,2026-03-31_12h00.54.510,attack,,2026.1.2,2026-03-31 12h00.54.675130 +0200,
/Users/jellevanderwerff/workshop_2026/attack_experiment/resources/sequence_onramp_20ms.wav,12,2,2,0,0,2,2,1,,,,,,,,,,41.62436237500515,76,,,,,,,,,,,,jelle2,001,2026-03-31_12h00.54.510,attack,,2026.1.2,2026-03-31 12h00.54.675130 +0200,
/Users/jellevanderwerff/workshop_2026/attack_experiment/resources/sequence_onramp_20ms.wav,12,2,2,0,0,2,2,1,,,,,,,,,,42.15826716698939,105,,,,,,,,,,,,jelle2,001,2026-03-31_12h00.54.510,attack,,2026.1.2,2026-03-31 12h00.54.675130 +0200,
/Users/jellevanderwerff/workshop_2026/attack_experiment/resources/sequence_onramp_20ms.wav,12,2,2,0,0,2,2,1,,,,,,,,,,42.599559791968204,99,,,,,,,,,,,,jelle2,001,2026-03-31_12h00.54.510,attack,,2026.1.2,2026-03-31 12h00.54.675130 +0200,
/Users/jellevanderwerff/workshop_2026/attack_experiment/resources/sequence_onramp_20ms.wav,12,2,2,0,0,2,2,1,,,,,,,,,,43.09918679198017,87,,,,,,,,,,,,jelle2,001,2026-03-31_12h00.54.510,attack,,2026.1.2,2026-03-31 12h00.54.675130 +0200,
/Users/jellevanderwerff/workshop_2026/attack_experiment/resources/sequence_onramp_20ms.wav,12,2,2,0,0,2,2,1,,,,,,,,,,43.57466474996181,94,,,,,,,,,,,,jelle2,001,2026-03-31_12h00.54.510,attack,,2026.1.2,2026-03-31 12h00.54.675130 +0200,
/Users/jellevanderwerff/workshop_2026/attack_experiment/resources/sequence_onramp_20ms.wav,12,2,2,0,0,2,2,1,,,,,,,,,,44.09074395796051,80,,,,,,,,,,,,jelle2,001,2026-03-31_12h00.54.510,attack,,2026.1.2,2026-03-31 12h00.54.675130 +0200,
/Users/jellevanderwerff/workshop_2026/attack_experiment/resources/sequence_onramp_20ms.wav,12,2,2,0,0,2,2,1,,,,,,,,,,44.5667527919868,92,,,,,,,,,,,,jelle2,001,2026-03-31_12h00.54.510,attack,,2026.1.2,2026-03-31 12h00.54.675130 +0200,
/Users/jellevanderwerff/workshop_2026/attack_experiment/resources/sequence_onramp_20ms.wav,12,2,2,0,0,2,2,1,,,,,,,,,,45.0666902079829,50,,,,,,,,,,,,jelle2,001,2026-03-31_12h00.54.510,attack,,2026.1.2,2026-03-31 12h00.54.675130 +0200,
/Users/jellevanderwerff/workshop_2026/attack_experiment/resources/sequence_onramp_20ms.wav,12,2,2,0,0,2,2,1,,,,,,,,,,45.54993812495377,90,,,,,,,,,,,,jelle2,001,2026-03-31_12h00.54.510,attack,,2026.1.2,2026-03-31 12h00.54.675130 +0200,
/Users/jellevanderwerff/workshop_2026/attack_experiment/resources/sequence_onramp_20ms.wav,12,2,2,0,0,2,2,1,,,,,,,,,,46.10001008299878,60,,,,,,,,,,,,jelle2,001,2026-03-31_12h00.54.510,attack,,2026.1.2,2026-03-31 12h00.54.675130 +0200,
/Users/jellevanderwerff/workshop_2026/attack_experiment/resources/sequence_onramp_20ms.wav,12,2,2,0,0,2,2,1,,,,,,,,,,46.59116508299485,55,,,,,,,,,,,,jelle2,001,2026-03-31_12h00.54.510,attack,,2026.1.2,2026-03-31 12h00.54.675130 +0200,
/Users/jellevanderwerff/workshop_2026/attack_experiment/resources/sequence_onramp_20ms.wav,12,2,2,0,0,2,2,1,,,,,,,,,,47.09073316695867,68,,,,,,,,,,,,jelle2,001,2026-03-31_12h00.54.510,attack,,2026.1.2,2026-03-31 12h00.54.675130 +0200,
/Users/jellevanderwerff/workshop_2026/attack_experiment/resources/sequence_onramp_20ms.wav,12,2,2,0,0,2,2,1,,,,,,,,,,47.591573166952,68,,,,,,,,,,,,jelle2,001,2026-03-31_12h00.54.510,attack,,2026.1.2,2026-03-31 12h00.54.675130 +0200,
/Users/jellevanderwerff/workshop_2026/attack_experiment/resources/sequence_onramp_20ms.wav,12,2,2,0,0,2,2,1,,,,,,,,,,48.08275745797437,68,,,,,,,,,,,,jelle2,001,2026-03-31_12h00.54.510,attack,,2026.1.2,2026-03-31 12h00.54.675130 +0200,
/Users/jellevanderwerff/workshop_2026/attack_experiment/resources/sequence_onramp_20ms.wav,12,2,2,0,0,2,2,1,,,,,,,,,,48.575277041993104,41,,,,,,,,,,,,jelle2,001,2026-03-31_12h00.54.510,attack,,2026.1.2,2026-03-31 12h00.54.675130 +0200,
/Users/jellevanderwerff/workshop_2026/attack_experiment/resources/sequence_onramp_20ms.wav,12,2,2,0,0,2,2,1,,,,,,,,,,49.01570449996507,41,,,,,,,,,,,,jelle2,001,2026-03-31_12h00.54.510,attack,,2026.1.2,2026-03-31 12h00.54.675130 +0200,
/Users/jellevanderwerff/workshop_2026/attack_experiment/resources/sequence_onramp_20ms.wav,12,2,2,0,0,2,2,1,,,,,,,,,,49.59163137496216,43,,,,,,,,,,,,jelle2,001,2026-03-31_12h00.54.510,attack,,2026.1.2,2026-03-31 12h00.54.675130 +0200,
/Users/jellevanderwerff/workshop_2026/attack_experiment/resources/sequence_onramp_20ms.wav,12,2,2,0,0,2,2,1,,,,,,,,,,50.07493166695349,49,,,,,,,,,,,,jelle2,001,2026-03-31_12h00.54.510,attack,,2026.1.2,2026-03-31 12h00.54.675130 +0200,
/Users/jellevanderwerff/workshop_2026/attack_experiment/resources/sequence_onramp_20ms.wav,12,2,2,0,0,2,2,1,,,,,,,,,,50.59919383295346,38,,,,,,,,,,,,jelle2,001,2026-03-31_12h00.54.510,attack,,2026.1.2,2026-03-31 12h00.54.675130 +0200,
/Users/jellevanderwerff/workshop_2026/attack_experiment/resources/sequence_onramp_20ms.wav,12,2,2,0,0,2,2,1,,,,,,,,,,51.06667374999961,40,,,,,,,,,,,,jelle2,001,2026-03-31_12h00.54.510,attack,,2026.1.2,2026-03-31 12h00.54.675130 +0200,
/Users/jellevanderwerff/workshop_2026/attack_experiment/resources/sequence_onramp_20ms.wav,12,2,2,0,0,2,2,1,,,,,,,,,,51.59116529196035,51,,,,,,,,,,,,jelle2,001,2026-03-31_12h00.54.510,attack,,2026.1.2,2026-03-31 12h00.54.675130 +0200,
/Users/jellevanderwerff/workshop_2026/attack_experiment/resources/sequence_onramp_20ms.wav,12,2,2,0,0,2,2,1,,,,,,,,,,,,52.0664485419984,52.07485366699984,52.066499916953035,52.06651649996638,52.07485366699984,55.07381270796759,55.05780229199445,,,,,jelle2,001,2026-03-31_12h00.54.510,attack,,2026.1.2,2026-03-31 12h00.54.675130 +0200,
/Users/jellevanderwerff/workshop_2026/attack_experiment/resources/sequence_onramp_100ms.wav,12,3,3,0,0,3,3,3,55.07381270796759,,,,,,55.06796604197007,55.074414583625426,55.07381270796759,55.0680594999576,41,,,,,,,,,,,,jelle2,001,2026-03-31_12h00.54.510,attack,,2026.1.2,2026-03-31 12h00.54.675130 +0200,
/Users/jellevanderwerff/workshop_2026/attack_experiment/resources/sequence_onramp_100ms.wav,12,3,3,0,0,3,3,3,,,,,,,,,,55.641768542001955,42,,,,,,,,,,,,jelle2,001,2026-03-31_12h00.54.510,attack,,2026.1.2,2026-03-31 12h00.54.675130 +0200,
/Users/jellevanderwerff/workshop_2026/attack_experiment/resources/sequence_onramp_100ms.wav,12,3,3,0,0,3,3,3,,,,,,,,,,56.19944258296164,82,,,,,,,,,,,,jelle2,001,2026-03-31_12h00.54.510,attack,,2026.1.2,2026-03-31 12h00.54.675130 +0200,
/Users/jellevanderwerff/workshop_2026/attack_experiment/resources/sequence_onramp_100ms.wav,12,3,3,0,0,3,3,3,,,,,,,,,,56.74920358299278,97,,,,,,,,,,,,jelle2,001,2026-03-31_12h00.54.510,attack,,2026.1.2,2026-03-31 12h00.54.675130 +0200,
/Users/jellevanderwerff/workshop_2026/attack_experiment/resources/sequence_onramp_100ms.wav,12,3,3,0,0,3,3,3,,,,,,,,,,57.299895207979716,78,,,,,,,,,,,,jelle2,001,2026-03-31_12h00.54.510,attack,,2026.1.2,2026-03-31 12h00.54.675130 +0200,
/Users/jellevanderwerff/workshop_2026/attack_experiment/resources/sequence_onramp_100ms.wav,12,3,3,0,0,3,3,3,,,,,,,,,,57.81598962499993,89,,,,,,,,,,,,jelle2,001,2026-03-31_12h00.54.510,attack,,2026.1.2,2026-03-31 12h00.54.675130 +0200,
/Users/jellevanderwerff/workshop_2026/attack_experiment/resources/sequence_onramp_100ms.wav,12,3,3,0,0,3,3,3,,,,,,,,,,58.34175112500088,39,,,,,,,,,,,,jelle2,001,2026-03-31_12h00.54.510,attack,,2026.1.2,2026-03-31 12h00.54.675130 +0200,
/Users/jellevanderwerff/workshop_2026/attack_experiment/resources/sequence_onramp_100ms.wav,12,3,3,0,0,3,3,3,,,,,,,,,,58.87483741698088,90,,,,,,,,,,,,jelle2,001,2026-03-31_12h00.54.510,attack,,2026.1.2,2026-03-31 12h00.54.675130 +0200,
/Users/jellevanderwerff/workshop_2026/attack_experiment/resources/sequence_onramp_100ms.wav,12,3,3,0,0,3,3,3,,,,,,,,,,59.38318616698962,28,,,,,,,,,,,,jelle2,001,2026-03-31_12h00.54.510,attack,,2026.1.2,2026-03-31 12h00.54.675130 +0200,
/Users/jellevanderwerff/workshop_2026/attack_experiment/resources/sequence_onramp_100ms.wav,12,3,3,0,0,3,3,3,,,,,,,,,,59.849217249953654,95,,,,,,,,,,,,jelle2,001,2026-03-31_12h00.54.510,attack,,2026.1.2,2026-03-31 12h00.54.675130 +0200,
/Users/jellevanderwerff/workshop_2026/attack_experiment/resources/sequence_onramp_100ms.wav,12,3,3,0,0,3,3,3,,,,,,,,,,60.31648558296729,80,,,,,,,,,,,,jelle2,001,2026-03-31_12h00.54.510,attack,,2026.1.2,2026-03-31 12h00.54.675130 +0200,
/Users/jellevanderwerff/workshop_2026/attack_experiment/resources/sequence_onramp_100ms.wav,12,3,3,0,0,3,3,3,,,,,,,,,,60.84931499999948,56,,,,,,,,,,,,jelle2,001,2026-03-31_12h00.54.510,attack,,2026.1.2,2026-03-31 12h00.54.675130 +0200,
/Users/jellevanderwerff/workshop_2026/attack_experiment/resources/sequence_onramp_100ms.wav,12,3,3,0,0,3,3,3,,,,,,,,,,61.341034166980535,67,,,,,,,,,,,,jelle2,001,2026-03-31_12h00.54.510,attack,,2026.1.2,2026-03-31 12h00.54.675130 +0200,
/Users/jellevanderwerff/workshop_2026/attack_experiment/resources/sequence_onramp_100ms.wav,12,3,3,0,0,3,3,3,,,,,,,,,,61.81572600000072,50,,,,,,,,,,,,jelle2,001,2026-03-31_12h00.54.510,attack,,2026.1.2,2026-03-31 12h00.54.675130 +0200,
/Users/jellevanderwerff/workshop_2026/attack_experiment/resources/sequence_onramp_100ms.wav,12,3,3,0,0,3,3,3,,,,,,,,,,62.30757754197111,55,,,,,,,,,,,,jelle2,001,2026-03-31_12h00.54.510,attack,,2026.1.2,2026-03-31 12h00.54.675130 +0200,
/Users/jellevanderwerff/workshop_2026/attack_experiment/resources/sequence_onramp_100ms.wav,12,3,3,0,0,3,3,3,,,,,,,,,,62.80777949996991,51,,,,,,,,,,,,jelle2,001,2026-03-31_12h00.54.510,attack,,2026.1.2,2026-03-31 12h00.54.675130 +0200,
/Users/jellevanderwerff/workshop_2026/attack_experiment/resources/sequence_onramp_100ms.wav,12,3,3,0,0,3,3,3,,,,,,,,,,63.332622166955844,65,,,,,,,,,,,,jelle2,001,2026-03-31_12h00.54.510,attack,,2026.1.2,2026-03-31 12h00.54.675130 +0200,
/Users/jellevanderwerff/workshop_2026/attack_experiment/resources/sequence_onramp_100ms.wav,12,3,3,0,0,3,3,3,,,,,,,,,,63.81682191696018,20,,,,,,,,,,,,jelle2,001,2026-03-31_12h00.54.510,attack,,2026.1.2,2026-03-31 12h00.54.675130 +0200,
/Users/jellevanderwerff/workshop_2026/attack_experiment/resources/sequence_onramp_100ms.wav,12,3,3,0,0,3,3,3,,,,,,,,,,64.34068254195154,82,,,,,,,,,,,,jelle2,001,2026-03-31_12h00.54.510,attack,,2026.1.2,2026-03-31 12h00.54.675130 +0200,
/Users/jellevanderwerff/workshop_2026/attack_experiment/resources/sequence_onramp_100ms.wav,12,3,3,0,0,3,3,3,,,,,,,,,,64.8335079579847,60,,,,,,,,,,,,jelle2,001,2026-03-31_12h00.54.510,attack,,2026.1.2,2026-03-31 12h00.54.675130 +0200,
/Users/jellevanderwerff/workshop_2026/attack_experiment/resources/sequence_onramp_100ms.wav,12,3,3,0,0,3,3,3,,,,,,,,,,65.33329354197485,60,,,,,,,,,,,,jelle2,001,2026-03-31_12h00.54.510,attack,,2026.1.2,2026-03-31 12h00.54.675130 +0200,
/Users/jellevanderwerff/workshop_2026/attack_experiment/resources/sequence_onramp_100ms.wav,12,3,3,0,0,3,3,3,,,,,,,,,,65.83286533295177,52,,,,,,,,,,,,jelle2,001,2026-03-31_12h00.54.510,attack,,2026.1.2,2026-03-31 12h00.54.675130 +0200,
/Users/jellevanderwerff/workshop_2026/attack_experiment/resources/sequence_onramp_100ms.wav,12,3,3,0,0,3,3,3,,,,,,,,,,66.30766516696895,65,,,,,,,,,,,,jelle2,001,2026-03-31_12h00.54.510,attack,,2026.1.2,2026-03-31 12h00.54.675130 +0200,
/Users/jellevanderwerff/workshop_2026/attack_experiment/resources/sequence_onramp_100ms.wav,12,3,3,0,0,3,3,3,,,,,,,,,,66.79105050000362,56,,,,,,,,,,,,jelle2,001,2026-03-31_12h00.54.510,attack,,2026.1.2,2026-03-31 12h00.54.675130 +0200,
/Users/jellevanderwerff/workshop_2026/attack_experiment/resources/sequence_onramp_100ms.wav,12,3,3,0,0,3,3,3,,,,,,,,,,,,67.07375112496084,67.07375112496084,67.06945808295859,67.06947054195916,67.07375112496084,70.07496033300413,70.05777458299417,,,,,jelle2,001,2026-03-31_12h00.54.510,attack,,2026.1.2,2026-03-31 12h00.54.675130 +0200,
/Users/jellevanderwerff/workshop_2026/attack_experiment/resources/sequence_onramp_0ms.wav,12,4,4,0,0,4,4,0,70.07496033300413,,,,,,70.06731366697932,70.074386458615,70.07496033300413,70.61661837500287,84,,,,,,,,,,,,jelle2,001,2026-03-31_12h00.54.510,attack,,2026.1.2,2026-03-31 12h00.54.675130 +0200,
/Users/jellevanderwerff/workshop_2026/attack_experiment/resources/sequence_onramp_0ms.wav,12,4,4,0,0,4,4,0,,,,,,,,,,71.15799274999881,90,,,,,,,,,,,,jelle2,001,2026-03-31_12h00.54.510,attack,,2026.1.2,2026-03-31 12h00.54.675130 +0200,
/Users/jellevanderwerff/workshop_2026/attack_experiment/resources/sequence_onramp_0ms.wav,12,4,4,0,0,4,4,0,,,,,,,,,,71.64996666699881,68,,,,,,,,,,,,jelle2,001,2026-03-31_12h00.54.510,attack,,2026.1.2,2026-03-31 12h00.54.675130 +0200,
/Users/jellevanderwerff/workshop_2026/attack_experiment/resources/sequence_onramp_0ms.wav,12,4,4,0,0,4,4,0,,,,,,,,,,72.1334536249633,91,,,,,,,,,,,,jelle2,001,2026-03-31_12h00.54.510,attack,,2026.1.2,2026-03-31 12h00.54.675130 +0200,
/Users/jellevanderwerff/workshop_2026/attack_experiment/resources/sequence_onramp_0ms.wav,12,4,4,0,0,4,4,0,,,,,,,,,,72.60760858299909,58,,,,,,,,,,,,jelle2,001,2026-03-31_12h00.54.510,attack,,2026.1.2,2026-03-31 12h00.54.675130 +0200,
/Users/jellevanderwerff/workshop_2026/attack_experiment/resources/sequence_onramp_0ms.wav,12,4,4,0,0,4,4,0,,,,,,,,,,73.11645733297337,89,,,,,,,,,,,,jelle2,001,2026-03-31_12h00.54.510,attack,,2026.1.2,2026-03-31 12h00.54.675130 +0200,
/Users/jellevanderwerff/workshop_2026/attack_experiment/resources/sequence_onramp_0ms.wav,12,4,4,0,0,4,4,0,,,,,,,,,,73.61673333297949,59,,,,,,,,,,,,jelle2,001,2026-03-31_12h00.54.510,attack,,2026.1.2,2026-03-31 12h00.54.675130 +0200,
/Users/jellevanderwerff/workshop_2026/attack_experiment/resources/sequence_onramp_0ms.wav,12,4,4,0,0,4,4,0,,,,,,,,,,74.09111783298431,58,,,,,,,,,,,,jelle2,001,2026-03-31_12h00.54.510,attack,,2026.1.2,2026-03-31 12h00.54.675130 +0200,
/Users/jellevanderwerff/workshop_2026/attack_experiment/resources/sequence_onramp_0ms.wav,12,4,4,0,0,4,4,0,,,,,,,,,,74.60816754197003,50,,,,,,,,,,,,jelle2,001,2026-03-31_12h00.54.510,attack,,2026.1.2,2026-03-31 12h00.54.675130 +0200,
/Users/jellevanderwerff/workshop_2026/attack_experiment/resources/sequence_onramp_0ms.wav,12,4,4,0,0,4,4,0,,,,,,,,,,75.11570391699206,52,,,,,,,,,,,,jelle2,001,2026-03-31_12h00.54.510,attack,,2026.1.2,2026-03-31 12h00.54.675130 +0200,
/Users/jellevanderwerff/workshop_2026/attack_experiment/resources/sequence_onramp_0ms.wav,12,4,4,0,0,4,4,0,,,,,,,,,,75.60735341697,72,,,,,,,,,,,,jelle2,001,2026-03-31_12h00.54.510,attack,,2026.1.2,2026-03-31 12h00.54.675130 +0200,
/Users/jellevanderwerff/workshop_2026/attack_experiment/resources/sequence_onramp_0ms.wav,12,4,4,0,0,4,4,0,,,,,,,,,,76.13238429196645,80,,,,,,,,,,,,jelle2,001,2026-03-31_12h00.54.510,attack,,2026.1.2,2026-03-31 12h00.54.675130 +0200,
/Users/jellevanderwerff/workshop_2026/attack_experiment/resources/sequence_onramp_0ms.wav,12,4,4,0,0,4,4,0,,,,,,,,,,76.60836199996993,74,,,,,,,,,,,,jelle2,001,2026-03-31_12h00.54.510,attack,,2026.1.2,2026-03-31 12h00.54.675130 +0200,
/Users/jellevanderwerff/workshop_2026/attack_experiment/resources/sequence_onramp_0ms.wav,12,4,4,0,0,4,4,0,,,,,,,,,,77.10011874994962,62,,,,,,,,,,,,jelle2,001,2026-03-31_12h00.54.510,attack,,2026.1.2,2026-03-31 12h00.54.675130 +0200,
/Users/jellevanderwerff/workshop_2026/attack_experiment/resources/sequence_onramp_0ms.wav,12,4,4,0,0,4,4,0,,,,,,,,,,77.58299958298448,103,,,,,,,,,,,,jelle2,001,2026-03-31_12h00.54.510,attack,,2026.1.2,2026-03-31 12h00.54.675130 +0200,
/Users/jellevanderwerff/workshop_2026/attack_experiment/resources/sequence_onramp_0ms.wav,12,4,4,0,0,4,4,0,,,,,,,,,,78.10835120797856,84,,,,,,,,,,,,jelle2,001,2026-03-31_12h00.54.510,attack,,2026.1.2,2026-03-31 12h00.54.675130 +0200,
/Users/jellevanderwerff/workshop_2026/attack_experiment/resources/sequence_onramp_0ms.wav,12,4,4,0,0,4,4,0,,,,,,,,,,78.58311887498712,97,,,,,,,,,,,,jelle2,001,2026-03-31_12h00.54.510,attack,,2026.1.2,2026-03-31 12h00.54.675130 +0200,
/Users/jellevanderwerff/workshop_2026/attack_experiment/resources/sequence_onramp_0ms.wav,12,4,4,0,0,4,4,0,,,,,,,,,,79.04919504199643,85,,,,,,,,,,,,jelle2,001,2026-03-31_12h00.54.510,attack,,2026.1.2,2026-03-31 12h00.54.675130 +0200,
/Users/jellevanderwerff/workshop_2026/attack_experiment/resources/sequence_onramp_0ms.wav,12,4,4,0,0,4,4,0,,,,,,,,,,79.59108883299632,64,,,,,,,,,,,,jelle2,001,2026-03-31_12h00.54.510,attack,,2026.1.2,2026-03-31 12h00.54.675130 +0200,
/Users/jellevanderwerff/workshop_2026/attack_experiment/resources/sequence_onramp_0ms.wav,12,4,4,0,0,4,4,0,,,,,,,,,,80.0993927079835,66,,,,,,,,,,,,jelle2,001,2026-03-31_12h00.54.510,attack,,2026.1.2,2026-03-31 12h00.54.675130 +0200,
/Users/jellevanderwerff/workshop_2026/attack_experiment/resources/sequence_onramp_0ms.wav,12,4,4,0,0,4,4,0,,,,,,,,,,80.5831582499668,59,,,,,,,,,,,,jelle2,001,2026-03-31_12h00.54.510,attack,,2026.1.2,2026-03-31 12h00.54.675130 +0200,
/Users/jellevanderwerff/workshop_2026/attack_experiment/resources/sequence_onramp_0ms.wav,12,4,4,0,0,4,4,0,,,,,,,,,,81.07503804197768,46,,,,,,,,,,,,jelle2,001,2026-03-31_12h00.54.510,attack,,2026.1.2,2026-03-31 12h00.54.675130 +0200,
/Users/jellevanderwerff/workshop_2026/attack_experiment/resources/sequence_onramp_0ms.wav,12,4,4,0,0,4,4,0,,,,,,,,,,81.55007462500362,47,,,,,,,,,,,,jelle2,001,2026-03-31_12h00.54.510,attack,,2026.1.2,2026-03-31 12h00.54.675130 +0200,
/Users/jellevanderwerff/workshop_2026/attack_experiment/resources/sequence_onramp_0ms.wav,12,4,4,0,0,4,4,0,,,,,,,,,,82.02491795795504,49,,,,,,,,,,,,jelle2,001,2026-03-31_12h00.54.510,attack,,2026.1.2,2026-03-31 12h00.54.675130 +0200,
/Users/jellevanderwerff/workshop_2026/attack_experiment/resources/sequence_onramp_0ms.wav,12,4,4,0,0,4,4,0,,,,,,,,,,,,82.07681212498574,82.07681212498574,82.07128583296435,82.0713009169558,82.07681212498574,85.07796674995916,85.06202008295804,,,,,jelle2,001,2026-03-31_12h00.54.510,attack,,2026.1.2,2026-03-31 12h00.54.675130 +0200,
/Users/jellevanderwerff/workshop_2026/attack_experiment/resources/sequence_onramp_200ms.wav,12,5,5,0,0,5,5,5,85.07796674995916,,,,,,85.07334183296189,85.07863279164691,85.07796674995916,85.55816533300094,47,,,,,,,,,,,,jelle2,001,2026-03-31_12h00.54.510,attack,,2026.1.2,2026-03-31 12h00.54.675130 +0200,
/Users/jellevanderwerff/workshop_2026/attack_experiment/resources/sequence_onramp_200ms.wav,12,5,5,0,0,5,5,5,,,,,,,,,,86.2326755829854,75,,,,,,,,,,,,jelle2,001,2026-03-31_12h00.54.510,attack,,2026.1.2,2026-03-31 12h00.54.675130 +0200,
/Users/jellevanderwerff/workshop_2026/attack_experiment/resources/sequence_onramp_200ms.wav,12,5,5,0,0,5,5,5,,,,,,,,,,86.72398020798573,57,,,,,,,,,,,,jelle2,001,2026-03-31_12h00.54.510,attack,,2026.1.2,2026-03-31 12h00.54.675130 +0200,
/Users/jellevanderwerff/workshop_2026/attack_experiment/resources/sequence_onramp_200ms.wav,12,5,5,0,0,5,5,5,,,,,,,,,,87.22464220796246,64,,,,,,,,,,,,jelle2,001,2026-03-31_12h00.54.510,attack,,2026.1.2,2026-03-31 12h00.54.675130 +0200,
/Users/jellevanderwerff/workshop_2026/attack_experiment/resources/sequence_onramp_200ms.wav,12,5,5,0,0,5,5,5,,,,,,,,,,87.7582792500034,46,,,,,,,,,,,,jelle2,001,2026-03-31_12h00.54.510,attack,,2026.1.2,2026-03-31 12h00.54.675130 +0200,
/Users/jellevanderwerff/workshop_2026/attack_experiment/resources/sequence_onramp_200ms.wav,12,5,5,0,0,5,5,5,,,,,,,,,,88.31667779199779,52,,,,,,,,,,,,jelle2,001,2026-03-31_12h00.54.510,attack,,2026.1.2,2026-03-31 12h00.54.675130 +0200,
/Users/jellevanderwerff/workshop_2026/attack_experiment/resources/sequence_onramp_200ms.wav,12,5,5,0,0,5,5,5,,,,,,,,,,88.86629420798272,45,,,,,,,,,,,,jelle2,001,2026-03-31_12h00.54.510,attack,,2026.1.2,2026-03-31 12h00.54.675130 +0200,
/Users/jellevanderwerff/workshop_2026/attack_experiment/resources/sequence_onramp_200ms.wav,12,5,5,0,0,5,5,5,,,,,,,,,,89.3742926249979,53,,,,,,,,,,,,jelle2,001,2026-03-31_12h00.54.510,attack,,2026.1.2,2026-03-31 12h00.54.675130 +0200,
/Users/jellevanderwerff/workshop_2026/attack_experiment/resources/sequence_onramp_200ms.wav,12,5,5,0,0,5,5,5,,,,,,,,,,89.88272841699654,35,,,,,,,,,,,,jelle2,001,2026-03-31_12h00.54.510,attack,,2026.1.2,2026-03-31 12h00.54.675130 +0200,
/Users/jellevanderwerff/workshop_2026/attack_experiment/resources/sequence_onramp_200ms.wav,12,5,5,0,0,5,5,5,,,,,,,,,,90.39082858298207,39,,,,,,,,,,,,jelle2,001,2026-03-31_12h00.54.510,attack,,2026.1.2,2026-03-31 12h00.54.675130 +0200,
/Users/jellevanderwerff/workshop_2026/attack_experiment/resources/sequence_onramp_200ms.wav,12,5,5,0,0,5,5,5,,,,,,,,,,90.88277370797005,44,,,,,,,,,,,,jelle2,001,2026-03-31_12h00.54.510,attack,,2026.1.2,2026-03-31 12h00.54.675130 +0200,
/Users/jellevanderwerff/workshop_2026/attack_experiment/resources/sequence_onramp_200ms.wav,12,5,5,0,0,5,5,5,,,,,,,,,,91.51594870799454,29,,,,,,,,,,,,jelle2,001,2026-03-31_12h00.54.510,attack,,2026.1.2,2026-03-31 12h00.54.675130 +0200,
/Users/jellevanderwerff/workshop_2026/attack_experiment/resources/sequence_onramp_200ms.wav,12,5,5,0,0,5,5,5,,,,,,,,,,92.06641512498027,37,,,,,,,,,,,,jelle2,001,2026-03-31_12h00.54.510,attack,,2026.1.2,2026-03-31 12h00.54.675130 +0200,
/Users/jellevanderwerff/workshop_2026/attack_experiment/resources/sequence_onramp_200ms.wav,12,5,5,0,0,5,5,5,,,,,,,,,,92.59158270800253,28,,,,,,,,,,,,jelle2,001,2026-03-31_12h00.54.510,attack,,2026.1.2,2026-03-31 12h00.54.675130 +0200,
/Users/jellevanderwerff/workshop_2026/attack_experiment/resources/sequence_onramp_200ms.wav,12,5,5,0,0,5,5,5,,,,,,,,,,93.07439974998124,41,,,,,,,,,,,,jelle2,001,2026-03-31_12h00.54.510,attack,,2026.1.2,2026-03-31 12h00.54.675130 +0200,
/Users/jellevanderwerff/workshop_2026/attack_experiment/resources/sequence_onramp_200ms.wav,12,5,5,0,0,5,5,5,,,,,,,,,,93.6325109169702,57,,,,,,,,,,,,jelle2,001,2026-03-31_12h00.54.510,attack,,2026.1.2,2026-03-31 12h00.54.675130 +0200,
/Users/jellevanderwerff/workshop_2026/attack_experiment/resources/sequence_onramp_200ms.wav,12,5,5,0,0,5,5,5,,,,,,,,,,94.14183124998817,47,,,,,,,,,,,,jelle2,001,2026-03-31_12h00.54.510,attack,,2026.1.2,2026-03-31 12h00.54.675130 +0200,
/Users/jellevanderwerff/workshop_2026/attack_experiment/resources/sequence_onramp_200ms.wav,12,5,5,0,0,5,5,5,,,,,,,,,,94.62465124996379,47,,,,,,,,,,,,jelle2,001,2026-03-31_12h00.54.510,attack,,2026.1.2,2026-03-31 12h00.54.675130 +0200,
/Users/jellevanderwerff/workshop_2026/attack_experiment/resources/sequence_onramp_200ms.wav,12,5,5,0,0,5,5,5,,,,,,,,,,95.13326829200378,86,,,,,,,,,,,,jelle2,001,2026-03-31_12h00.54.510,attack,,2026.1.2,2026-03-31 12h00.54.675130 +0200,
/Users/jellevanderwerff/workshop_2026/attack_experiment/resources/sequence_onramp_200ms.wav,12,5,5,0,0,5,5,5,,,,,,,,,,95.65834704198642,58,,,,,,,,,,,,jelle2,001,2026-03-31_12h00.54.510,attack,,2026.1.2,2026-03-31 12h00.54.675130 +0200,
/Users/jellevanderwerff/workshop_2026/attack_experiment/resources/sequence_onramp_200ms.wav,12,5,5,0,0,5,5,5,,,,,,,,,,96.14193395798793,72,,,,,,,,,,,,jelle2,001,2026-03-31_12h00.54.510,attack,,2026.1.2,2026-03-31 12h00.54.675130 +0200,
/Users/jellevanderwerff/workshop_2026/attack_experiment/resources/sequence_onramp_200ms.wav,12,5,5,0,0,5,5,5,,,,,,,,,,96.64990645798389,43,,,,,,,,,,,,jelle2,001,2026-03-31_12h00.54.510,attack,,2026.1.2,2026-03-31 12h00.54.675130 +0200,
/Users/jellevanderwerff/workshop_2026/attack_experiment/resources/sequence_onramp_200ms.wav,12,5,5,0,0,5,5,5,,,,,,,,,,,,97.0864395829849,97.0864395829849,97.08028824999928,97.08030237496132,97.0864395829849,100.08261199999833,100.07456454198109,,,,,jelle2,001,2026-03-31_12h00.54.510,attack,,2026.1.2,2026-03-31 12h00.54.675130 +0200,
,,,,,,,,,,,,,,,,,,,,,,,,,,,100.07460045797052,100.08261199999833,101.07401504198788,101.06682670797454,jelle2,001,2026-03-31_12h00.54.510,attack,,2026.1.2,2026-03-31 12h00.54.675130 +0200,
