fileName,playLength,thisN,thisTrialN,thisRepN,trials.thisRepN,trials.thisTrialN,trials.thisN,trials.thisIndex,thisRow.t,notes,piloting,get_ready.started,text.started,get_ready.stopped,trial.started,stimulus.started,start_tapping.started,resp.time,resp.velocity,stimulus.stopped,start_tapping.stopped,trial.stopped,ITI.started,stop_tapping.started,ITI.stopped,stop_tapping.stopped,end_exp.started,thankyou.started,thankyou.stopped,end_exp.stopped,participant,session,date,expName,expVersion,psychopyVersion,expStart,
,,,,,,,,,,,False,0.02314966602716595,0.046498583047650754,10.006142083031591,,,,,,,,,,,,,,,,,riccardo,001,2026-04-01_11h08.40.813,attack,,2026.1.2,2026-04-01 11h08.41.000843 +0200,
/Users/jellevanderwerff/workshop_2026/attack_experiment/resources/sequence_onramp_0ms.wav,12,0,0,0,0,0,0,0,10.03988937503891,,,,,,10.026433291030116,10.039443249356314,10.03988937503891,10.705699208017904,49,,,,,,,,,,,,riccardo,001,2026-04-01_11h08.40.813,attack,,2026.1.2,2026-04-01 11h08.41.000843 +0200,
/Users/jellevanderwerff/workshop_2026/attack_experiment/resources/sequence_onramp_0ms.wav,12,0,0,0,0,0,0,0,,,,,,,,,,11.072936583019327,59,,,,,,,,,,,,riccardo,001,2026-04-01_11h08.40.813,attack,,2026.1.2,2026-04-01 11h08.41.000843 +0200,
/Users/jellevanderwerff/workshop_2026/attack_experiment/resources/sequence_onramp_0ms.wav,12,0,0,0,0,0,0,0,,,,,,,,,,11.547813125012908,88,,,,,,,,,,,,riccardo,001,2026-04-01_11h08.40.813,attack,,2026.1.2,2026-04-01 11h08.41.000843 +0200,
/Users/jellevanderwerff/workshop_2026/attack_experiment/resources/sequence_onramp_0ms.wav,12,0,0,0,0,0,0,0,,,,,,,,,,12.064061750017572,55,,,,,,,,,,,,riccardo,001,2026-04-01_11h08.40.813,attack,,2026.1.2,2026-04-01 11h08.41.000843 +0200,
/Users/jellevanderwerff/workshop_2026/attack_experiment/resources/sequence_onramp_0ms.wav,12,0,0,0,0,0,0,0,,,,,,,,,,12.55564224999398,55,,,,,,,,,,,,riccardo,001,2026-04-01_11h08.40.813,attack,,2026.1.2,2026-04-01 11h08.41.000843 +0200,
/Users/jellevanderwerff/workshop_2026/attack_experiment/resources/sequence_onramp_0ms.wav,12,0,0,0,0,0,0,0,,,,,,,,,,13.064200041000731,113,,,,,,,,,,,,riccardo,001,2026-04-01_11h08.40.813,attack,,2026.1.2,2026-04-01 11h08.41.000843 +0200,
/Users/jellevanderwerff/workshop_2026/attack_experiment/resources/sequence_onramp_0ms.wav,12,0,0,0,0,0,0,0,,,,,,,,,,13.54703741602134,109,,,,,,,,,,,,riccardo,001,2026-04-01_11h08.40.813,attack,,2026.1.2,2026-04-01 11h08.41.000843 +0200,
/Users/jellevanderwerff/workshop_2026/attack_experiment/resources/sequence_onramp_0ms.wav,12,0,0,0,0,0,0,0,,,,,,,,,,14.039512041024864,104,,,,,,,,,,,,riccardo,001,2026-04-01_11h08.40.813,attack,,2026.1.2,2026-04-01 11h08.41.000843 +0200,
/Users/jellevanderwerff/workshop_2026/attack_experiment/resources/sequence_onramp_0ms.wav,12,0,0,0,0,0,0,0,,,,,,,,,,14.539553666021675,104,,,,,,,,,,,,riccardo,001,2026-04-01_11h08.40.813,attack,,2026.1.2,2026-04-01 11h08.41.000843 +0200,
/Users/jellevanderwerff/workshop_2026/attack_experiment/resources/sequence_onramp_0ms.wav,12,0,0,0,0,0,0,0,,,,,,,,,,15.05624612502288,104,,,,,,,,,,,,riccardo,001,2026-04-01_11h08.40.813,attack,,2026.1.2,2026-04-01 11h08.41.000843 +0200,
/Users/jellevanderwerff/workshop_2026/attack_experiment/resources/sequence_onramp_0ms.wav,12,0,0,0,0,0,0,0,,,,,,,,,,15.539576166018378,77,,,,,,,,,,,,riccardo,001,2026-04-01_11h08.40.813,attack,,2026.1.2,2026-04-01 11h08.41.000843 +0200,
/Users/jellevanderwerff/workshop_2026/attack_experiment/resources/sequence_onramp_0ms.wav,12,0,0,0,0,0,0,0,,,,,,,,,,16.048054500017315,98,,,,,,,,,,,,riccardo,001,2026-04-01_11h08.40.813,attack,,2026.1.2,2026-04-01 11h08.41.000843 +0200,
/Users/jellevanderwerff/workshop_2026/attack_experiment/resources/sequence_onramp_0ms.wav,12,0,0,0,0,0,0,0,,,,,,,,,,16.55573645804543,85,,,,,,,,,,,,riccardo,001,2026-04-01_11h08.40.813,attack,,2026.1.2,2026-04-01 11h08.41.000843 +0200,
/Users/jellevanderwerff/workshop_2026/attack_experiment/resources/sequence_onramp_0ms.wav,12,0,0,0,0,0,0,0,,,,,,,,,,17.031223875004798,90,,,,,,,,,,,,riccardo,001,2026-04-01_11h08.40.813,attack,,2026.1.2,2026-04-01 11h08.41.000843 +0200,
/Users/jellevanderwerff/workshop_2026/attack_experiment/resources/sequence_onramp_0ms.wav,12,0,0,0,0,0,0,0,,,,,,,,,,17.523052250035107,97,,,,,,,,,,,,riccardo,001,2026-04-01_11h08.40.813,attack,,2026.1.2,2026-04-01 11h08.41.000843 +0200,
/Users/jellevanderwerff/workshop_2026/attack_experiment/resources/sequence_onramp_0ms.wav,12,0,0,0,0,0,0,0,,,,,,,,,,18.031427875044756,88,,,,,,,,,,,,riccardo,001,2026-04-01_11h08.40.813,attack,,2026.1.2,2026-04-01 11h08.41.000843 +0200,
/Users/jellevanderwerff/workshop_2026/attack_experiment/resources/sequence_onramp_0ms.wav,12,0,0,0,0,0,0,0,,,,,,,,,,18.52295079099713,100,,,,,,,,,,,,riccardo,001,2026-04-01_11h08.40.813,attack,,2026.1.2,2026-04-01 11h08.41.000843 +0200,
/Users/jellevanderwerff/workshop_2026/attack_experiment/resources/sequence_onramp_0ms.wav,12,0,0,0,0,0,0,0,,,,,,,,,,19.04739708302077,81,,,,,,,,,,,,riccardo,001,2026-04-01_11h08.40.813,attack,,2026.1.2,2026-04-01 11h08.41.000843 +0200,
/Users/jellevanderwerff/workshop_2026/attack_experiment/resources/sequence_onramp_0ms.wav,12,0,0,0,0,0,0,0,,,,,,,,,,19.539652208040934,94,,,,,,,,,,,,riccardo,001,2026-04-01_11h08.40.813,attack,,2026.1.2,2026-04-01 11h08.41.000843 +0200,
/Users/jellevanderwerff/workshop_2026/attack_experiment/resources/sequence_onramp_0ms.wav,12,0,0,0,0,0,0,0,,,,,,,,,,20.014499208016787,67,,,,,,,,,,,,riccardo,001,2026-04-01_11h08.40.813,attack,,2026.1.2,2026-04-01 11h08.41.000843 +0200,
/Users/jellevanderwerff/workshop_2026/attack_experiment/resources/sequence_onramp_0ms.wav,12,0,0,0,0,0,0,0,,,,,,,,,,20.514389375050087,63,,,,,,,,,,,,riccardo,001,2026-04-01_11h08.40.813,attack,,2026.1.2,2026-04-01 11h08.41.000843 +0200,
/Users/jellevanderwerff/workshop_2026/attack_experiment/resources/sequence_onramp_0ms.wav,12,0,0,0,0,0,0,0,,,,,,,,,,21.014723833010066,80,,,,,,,,,,,,riccardo,001,2026-04-01_11h08.40.813,attack,,2026.1.2,2026-04-01 11h08.41.000843 +0200,
/Users/jellevanderwerff/workshop_2026/attack_experiment/resources/sequence_onramp_0ms.wav,12,0,0,0,0,0,0,0,,,,,,,,,,21.522125375049654,68,,,,,,,,,,,,riccardo,001,2026-04-01_11h08.40.813,attack,,2026.1.2,2026-04-01 11h08.41.000843 +0200,
/Users/jellevanderwerff/workshop_2026/attack_experiment/resources/sequence_onramp_0ms.wav,12,0,0,0,0,0,0,0,,,,,,,,,,21.9980802910286,60,,,,,,,,,,,,riccardo,001,2026-04-01_11h08.40.813,attack,,2026.1.2,2026-04-01 11h08.41.000843 +0200,
/Users/jellevanderwerff/workshop_2026/attack_experiment/resources/sequence_onramp_0ms.wav,12,0,0,0,0,0,0,0,,,,,,,,,,,,22.05639737501042,22.05639737501042,22.03995779104298,22.039978125016205,22.05639737501042,25.04373570799362,,,,,,riccardo,001,2026-04-01_11h08.40.813,attack,,2026.1.2,2026-04-01 11h08.41.000843 +0200,
/Users/jellevanderwerff/workshop_2026/attack_experiment/resources/sequence_onramp_150ms.wav,12,1,1,0,0,1,1,4,25.06875175004825,,,,,,25.05867825000314,25.060371749689025,25.06875175004825,25.439596666023135,32,,,,,,,,,,,,riccardo,001,2026-04-01_11h08.40.813,attack,,2026.1.2,2026-04-01 11h08.41.000843 +0200,
/Users/jellevanderwerff/workshop_2026/attack_experiment/resources/sequence_onramp_150ms.wav,12,1,1,0,0,1,1,4,,,,,,,,,,25.714160625007935,46,,,,,,,,,,,,riccardo,001,2026-04-01_11h08.40.813,attack,,2026.1.2,2026-04-01 11h08.41.000843 +0200,
/Users/jellevanderwerff/workshop_2026/attack_experiment/resources/sequence_onramp_150ms.wav,12,1,1,0,0,1,1,4,,,,,,,,,,26.106247541029006,70,,,,,,,,,,,,riccardo,001,2026-04-01_11h08.40.813,attack,,2026.1.2,2026-04-01 11h08.41.000843 +0200,
/Users/jellevanderwerff/workshop_2026/attack_experiment/resources/sequence_onramp_150ms.wav,12,1,1,0,0,1,1,4,,,,,,,,,,26.572749832994305,101,,,,,,,,,,,,riccardo,001,2026-04-01_11h08.40.813,attack,,2026.1.2,2026-04-01 11h08.41.000843 +0200,
/Users/jellevanderwerff/workshop_2026/attack_experiment/resources/sequence_onramp_150ms.wav,12,1,1,0,0,1,1,4,,,,,,,,,,27.048050083045382,101,,,,,,,,,,,,riccardo,001,2026-04-01_11h08.40.813,attack,,2026.1.2,2026-04-01 11h08.41.000843 +0200,
/Users/jellevanderwerff/workshop_2026/attack_experiment/resources/sequence_onramp_150ms.wav,12,1,1,0,0,1,1,4,,,,,,,,,,27.5644308750052,54,,,,,,,,,,,,riccardo,001,2026-04-01_11h08.40.813,attack,,2026.1.2,2026-04-01 11h08.41.000843 +0200,
/Users/jellevanderwerff/workshop_2026/attack_experiment/resources/sequence_onramp_150ms.wav,12,1,1,0,0,1,1,4,,,,,,,,,,28.055815916042775,50,,,,,,,,,,,,riccardo,001,2026-04-01_11h08.40.813,attack,,2026.1.2,2026-04-01 11h08.41.000843 +0200,
/Users/jellevanderwerff/workshop_2026/attack_experiment/resources/sequence_onramp_150ms.wav,12,1,1,0,0,1,1,4,,,,,,,,,,28.539137582993135,64,,,,,,,,,,,,riccardo,001,2026-04-01_11h08.40.813,attack,,2026.1.2,2026-04-01 11h08.41.000843 +0200,
/Users/jellevanderwerff/workshop_2026/attack_experiment/resources/sequence_onramp_150ms.wav,12,1,1,0,0,1,1,4,,,,,,,,,,29.056102000002284,54,,,,,,,,,,,,riccardo,001,2026-04-01_11h08.40.813,attack,,2026.1.2,2026-04-01 11h08.41.000843 +0200,
/Users/jellevanderwerff/workshop_2026/attack_experiment/resources/sequence_onramp_150ms.wav,12,1,1,0,0,1,1,4,,,,,,,,,,29.547471125028096,64,,,,,,,,,,,,riccardo,001,2026-04-01_11h08.40.813,attack,,2026.1.2,2026-04-01 11h08.41.000843 +0200,
/Users/jellevanderwerff/workshop_2026/attack_experiment/resources/sequence_onramp_150ms.wav,12,1,1,0,0,1,1,4,,,,,,,,,,30.056233083014376,49,,,,,,,,,,,,riccardo,001,2026-04-01_11h08.40.813,attack,,2026.1.2,2026-04-01 11h08.41.000843 +0200,
/Users/jellevanderwerff/workshop_2026/attack_experiment/resources/sequence_onramp_150ms.wav,12,1,1,0,0,1,1,4,,,,,,,,,,30.563791499997023,43,,,,,,,,,,,,riccardo,001,2026-04-01_11h08.40.813,attack,,2026.1.2,2026-04-01 11h08.41.000843 +0200,
/Users/jellevanderwerff/workshop_2026/attack_experiment/resources/sequence_onramp_150ms.wav,12,1,1,0,0,1,1,4,,,,,,,,,,31.081229750008788,52,,,,,,,,,,,,riccardo,001,2026-04-01_11h08.40.813,attack,,2026.1.2,2026-04-01 11h08.41.000843 +0200,
/Users/jellevanderwerff/workshop_2026/attack_experiment/resources/sequence_onramp_150ms.wav,12,1,1,0,0,1,1,4,,,,,,,,,,31.57289520802442,59,,,,,,,,,,,,riccardo,001,2026-04-01_11h08.40.813,attack,,2026.1.2,2026-04-01 11h08.41.000843 +0200,
/Users/jellevanderwerff/workshop_2026/attack_experiment/resources/sequence_onramp_150ms.wav,12,1,1,0,0,1,1,4,,,,,,,,,,32.064434458035976,57,,,,,,,,,,,,riccardo,001,2026-04-01_11h08.40.813,attack,,2026.1.2,2026-04-01 11h08.41.000843 +0200,
/Users/jellevanderwerff/workshop_2026/attack_experiment/resources/sequence_onramp_150ms.wav,12,1,1,0,0,1,1,4,,,,,,,,,,32.56400554103311,68,,,,,,,,,,,,riccardo,001,2026-04-01_11h08.40.813,attack,,2026.1.2,2026-04-01 11h08.41.000843 +0200,
/Users/jellevanderwerff/workshop_2026/attack_experiment/resources/sequence_onramp_150ms.wav,12,1,1,0,0,1,1,4,,,,,,,,,,33.37298070802353,13,,,,,,,,,,,,riccardo,001,2026-04-01_11h08.40.813,attack,,2026.1.2,2026-04-01 11h08.41.000843 +0200,
/Users/jellevanderwerff/workshop_2026/attack_experiment/resources/sequence_onramp_150ms.wav,12,1,1,0,0,1,1,4,,,,,,,,,,33.68942816602066,24,,,,,,,,,,,,riccardo,001,2026-04-01_11h08.40.813,attack,,2026.1.2,2026-04-01 11h08.41.000843 +0200,
/Users/jellevanderwerff/workshop_2026/attack_experiment/resources/sequence_onramp_150ms.wav,12,1,1,0,0,1,1,4,,,,,,,,,,34.09766925004078,99,,,,,,,,,,,,riccardo,001,2026-04-01_11h08.40.813,attack,,2026.1.2,2026-04-01 11h08.41.000843 +0200,
/Users/jellevanderwerff/workshop_2026/attack_experiment/resources/sequence_onramp_150ms.wav,12,1,1,0,0,1,1,4,,,,,,,,,,34.54801716603106,91,,,,,,,,,,,,riccardo,001,2026-04-01_11h08.40.813,attack,,2026.1.2,2026-04-01 11h08.41.000843 +0200,
/Users/jellevanderwerff/workshop_2026/attack_experiment/resources/sequence_onramp_150ms.wav,12,1,1,0,0,1,1,4,,,,,,,,,,35.05645437503699,100,,,,,,,,,,,,riccardo,001,2026-04-01_11h08.40.813,attack,,2026.1.2,2026-04-01 11h08.41.000843 +0200,
/Users/jellevanderwerff/workshop_2026/attack_experiment/resources/sequence_onramp_150ms.wav,12,1,1,0,0,1,1,4,,,,,,,,,,35.55638825002825,50,,,,,,,,,,,,riccardo,001,2026-04-01_11h08.40.813,attack,,2026.1.2,2026-04-01 11h08.41.000843 +0200,
/Users/jellevanderwerff/workshop_2026/attack_experiment/resources/sequence_onramp_150ms.wav,12,1,1,0,0,1,1,4,,,,,,,,,,36.05624229100067,87,,,,,,,,,,,,riccardo,001,2026-04-01_11h08.40.813,attack,,2026.1.2,2026-04-01 11h08.41.000843 +0200,
/Users/jellevanderwerff/workshop_2026/attack_experiment/resources/sequence_onramp_150ms.wav,12,1,1,0,0,1,1,4,,,,,,,,,,36.56467104103649,73,,,,,,,,,,,,riccardo,001,2026-04-01_11h08.40.813,attack,,2026.1.2,2026-04-01 11h08.41.000843 +0200,
/Users/jellevanderwerff/workshop_2026/attack_experiment/resources/sequence_onramp_150ms.wav,12,1,1,0,0,1,1,4,,,,,,,,,,37.063365291047376,42,37.073248583008535,,,,,,,,,,,riccardo,001,2026-04-01_11h08.40.813,attack,,2026.1.2,2026-04-01 11h08.41.000843 +0200,
/Users/jellevanderwerff/workshop_2026/attack_experiment/resources/sequence_onramp_150ms.wav,12,1,1,0,0,1,1,4,,,,,,,,,,,,,37.08108362503117,37.073303708049934,37.073315165995155,37.08108362503117,40.064576041011605,40.08439587504836,,,,,riccardo,001,2026-04-01_11h08.40.813,attack,,2026.1.2,2026-04-01 11h08.41.000843 +0200,
/Users/jellevanderwerff/workshop_2026/attack_experiment/resources/sequence_onramp_100ms.wav,12,2,2,0,0,2,2,3,40.08439587504836,,,,,,40.0783375830506,40.081197166702864,40.08439587504836,40.42669187503634,85,,,,,,,,,,,,riccardo,001,2026-04-01_11h08.40.813,attack,,2026.1.2,2026-04-01 11h08.41.000843 +0200,
/Users/jellevanderwerff/workshop_2026/attack_experiment/resources/sequence_onramp_100ms.wav,12,2,2,0,0,2,2,3,,,,,,,,,,40.726914458035026,81,,,,,,,,,,,,riccardo,001,2026-04-01_11h08.40.813,attack,,2026.1.2,2026-04-01 11h08.41.000843 +0200,
/Users/jellevanderwerff/workshop_2026/attack_experiment/resources/sequence_onramp_100ms.wav,12,2,2,0,0,2,2,3,,,,,,,,,,41.12636337504955,92,,,,,,,,,,,,riccardo,001,2026-04-01_11h08.40.813,attack,,2026.1.2,2026-04-01 11h08.41.000843 +0200,
/Users/jellevanderwerff/workshop_2026/attack_experiment/resources/sequence_onramp_100ms.wav,12,2,2,0,0,2,2,3,,,,,,,,,,41.57703158300137,68,,,,,,,,,,,,riccardo,001,2026-04-01_11h08.40.813,attack,,2026.1.2,2026-04-01 11h08.41.000843 +0200,
/Users/jellevanderwerff/workshop_2026/attack_experiment/resources/sequence_onramp_100ms.wav,12,2,2,0,0,2,2,3,,,,,,,,,,42.05123529100092,88,,,,,,,,,,,,riccardo,001,2026-04-01_11h08.40.813,attack,,2026.1.2,2026-04-01 11h08.41.000843 +0200,
/Users/jellevanderwerff/workshop_2026/attack_experiment/resources/sequence_onramp_100ms.wav,12,2,2,0,0,2,2,3,,,,,,,,,,42.56776991602965,89,,,,,,,,,,,,riccardo,001,2026-04-01_11h08.40.813,attack,,2026.1.2,2026-04-01 11h08.41.000843 +0200,
/Users/jellevanderwerff/workshop_2026/attack_experiment/resources/sequence_onramp_100ms.wav,12,2,2,0,0,2,2,3,,,,,,,,,,43.07711445802124,74,,,,,,,,,,,,riccardo,001,2026-04-01_11h08.40.813,attack,,2026.1.2,2026-04-01 11h08.41.000843 +0200,
/Users/jellevanderwerff/workshop_2026/attack_experiment/resources/sequence_onramp_100ms.wav,12,2,2,0,0,2,2,3,,,,,,,,,,43.58539041603217,64,,,,,,,,,,,,riccardo,001,2026-04-01_11h08.40.813,attack,,2026.1.2,2026-04-01 11h08.41.000843 +0200,
/Users/jellevanderwerff/workshop_2026/attack_experiment/resources/sequence_onramp_100ms.wav,12,2,2,0,0,2,2,3,,,,,,,,,,44.07713720801985,72,,,,,,,,,,,,riccardo,001,2026-04-01_11h08.40.813,attack,,2026.1.2,2026-04-01 11h08.41.000843 +0200,
/Users/jellevanderwerff/workshop_2026/attack_experiment/resources/sequence_onramp_100ms.wav,12,2,2,0,0,2,2,3,,,,,,,,,,44.58479479100788,61,,,,,,,,,,,,riccardo,001,2026-04-01_11h08.40.813,attack,,2026.1.2,2026-04-01 11h08.41.000843 +0200,
/Users/jellevanderwerff/workshop_2026/attack_experiment/resources/sequence_onramp_100ms.wav,12,2,2,0,0,2,2,3,,,,,,,,,,45.077048625040334,72,,,,,,,,,,,,riccardo,001,2026-04-01_11h08.40.813,attack,,2026.1.2,2026-04-01 11h08.41.000843 +0200,
/Users/jellevanderwerff/workshop_2026/attack_experiment/resources/sequence_onramp_100ms.wav,12,2,2,0,0,2,2,3,,,,,,,,,,45.576915791025385,84,,,,,,,,,,,,riccardo,001,2026-04-01_11h08.40.813,attack,,2026.1.2,2026-04-01 11h08.41.000843 +0200,
/Users/jellevanderwerff/workshop_2026/attack_experiment/resources/sequence_onramp_100ms.wav,12,2,2,0,0,2,2,3,,,,,,,,,,46.07704191602534,73,,,,,,,,,,,,riccardo,001,2026-04-01_11h08.40.813,attack,,2026.1.2,2026-04-01 11h08.41.000843 +0200,
/Users/jellevanderwerff/workshop_2026/attack_experiment/resources/sequence_onramp_100ms.wav,12,2,2,0,0,2,2,3,,,,,,,,,,46.585260374995414,81,,,,,,,,,,,,riccardo,001,2026-04-01_11h08.40.813,attack,,2026.1.2,2026-04-01 11h08.41.000843 +0200,
/Users/jellevanderwerff/workshop_2026/attack_experiment/resources/sequence_onramp_100ms.wav,12,2,2,0,0,2,2,3,,,,,,,,,,47.084387416020036,56,,,,,,,,,,,,riccardo,001,2026-04-01_11h08.40.813,attack,,2026.1.2,2026-04-01 11h08.41.000843 +0200,
/Users/jellevanderwerff/workshop_2026/attack_experiment/resources/sequence_onramp_100ms.wav,12,2,2,0,0,2,2,3,,,,,,,,,,47.60182354104472,57,,,,,,,,,,,,riccardo,001,2026-04-01_11h08.40.813,attack,,2026.1.2,2026-04-01 11h08.41.000843 +0200,
/Users/jellevanderwerff/workshop_2026/attack_experiment/resources/sequence_onramp_100ms.wav,12,2,2,0,0,2,2,3,,,,,,,,,,48.09357391600497,53,,,,,,,,,,,,riccardo,001,2026-04-01_11h08.40.813,attack,,2026.1.2,2026-04-01 11h08.41.000843 +0200,
/Users/jellevanderwerff/workshop_2026/attack_experiment/resources/sequence_onramp_100ms.wav,12,2,2,0,0,2,2,3,,,,,,,,,,48.551929333014414,56,,,,,,,,,,,,riccardo,001,2026-04-01_11h08.40.813,attack,,2026.1.2,2026-04-01 11h08.41.000843 +0200,
/Users/jellevanderwerff/workshop_2026/attack_experiment/resources/sequence_onramp_100ms.wav,12,2,2,0,0,2,2,3,,,,,,,,,,49.06876108300639,68,,,,,,,,,,,,riccardo,001,2026-04-01_11h08.40.813,attack,,2026.1.2,2026-04-01 11h08.41.000843 +0200,
/Users/jellevanderwerff/workshop_2026/attack_experiment/resources/sequence_onramp_100ms.wav,12,2,2,0,0,2,2,3,,,,,,,,,,49.59355066600256,77,,,,,,,,,,,,riccardo,001,2026-04-01_11h08.40.813,attack,,2026.1.2,2026-04-01 11h08.41.000843 +0200,
/Users/jellevanderwerff/workshop_2026/attack_experiment/resources/sequence_onramp_100ms.wav,12,2,2,0,0,2,2,3,,,,,,,,,,50.11009470804129,72,,,,,,,,,,,,riccardo,001,2026-04-01_11h08.40.813,attack,,2026.1.2,2026-04-01 11h08.41.000843 +0200,
/Users/jellevanderwerff/workshop_2026/attack_experiment/resources/sequence_onramp_100ms.wav,12,2,2,0,0,2,2,3,,,,,,,,,,50.60225741600152,74,,,,,,,,,,,,riccardo,001,2026-04-01_11h08.40.813,attack,,2026.1.2,2026-04-01 11h08.41.000843 +0200,
/Users/jellevanderwerff/workshop_2026/attack_experiment/resources/sequence_onramp_100ms.wav,12,2,2,0,0,2,2,3,,,,,,,,,,51.093605416012,49,,,,,,,,,,,,riccardo,001,2026-04-01_11h08.40.813,attack,,2026.1.2,2026-04-01 11h08.41.000843 +0200,
/Users/jellevanderwerff/workshop_2026/attack_experiment/resources/sequence_onramp_100ms.wav,12,2,2,0,0,2,2,3,,,,,,,,,,51.59369729104219,35,,,,,,,,,,,,riccardo,001,2026-04-01_11h08.40.813,attack,,2026.1.2,2026-04-01 11h08.41.000843 +0200,
/Users/jellevanderwerff/workshop_2026/attack_experiment/resources/sequence_onramp_100ms.wav,12,2,2,0,0,2,2,3,,,,,,,,,,,,52.08522825001273,52.08522825001273,52.07960225001443,52.07961958303349,52.08522825001273,55.07279408304021,55.08982033299981,,,,,riccardo,001,2026-04-01_11h08.40.813,attack,,2026.1.2,2026-04-01 11h08.41.000843 +0200,
/Users/jellevanderwerff/workshop_2026/attack_experiment/resources/sequence_onramp_200ms.wav,12,3,3,0,0,3,3,5,55.08982033299981,,,,,,55.08397708303528,55.08941374969824,55.08982033299981,55.08405350003159,43,,,,,,,,,,,,riccardo,001,2026-04-01_11h08.40.813,attack,,2026.1.2,2026-04-01 11h08.41.000843 +0200,
/Users/jellevanderwerff/workshop_2026/attack_experiment/resources/sequence_onramp_200ms.wav,12,3,3,0,0,3,3,5,,,,,,,,,,55.36878383299336,73,,,,,,,,,,,,riccardo,001,2026-04-01_11h08.40.813,attack,,2026.1.2,2026-04-01 11h08.41.000843 +0200,
/Users/jellevanderwerff/workshop_2026/attack_experiment/resources/sequence_onramp_200ms.wav,12,3,3,0,0,3,3,5,,,,,,,,,,55.70209299999988,40,,,,,,,,,,,,riccardo,001,2026-04-01_11h08.40.813,attack,,2026.1.2,2026-04-01 11h08.41.000843 +0200,
/Users/jellevanderwerff/workshop_2026/attack_experiment/resources/sequence_onramp_200ms.wav,12,3,3,0,0,3,3,5,,,,,,,,,,56.15206066600513,72,,,,,,,,,,,,riccardo,001,2026-04-01_11h08.40.813,attack,,2026.1.2,2026-04-01 11h08.41.000843 +0200,
/Users/jellevanderwerff/workshop_2026/attack_experiment/resources/sequence_onramp_200ms.wav,12,3,3,0,0,3,3,5,,,,,,,,,,56.635407916037366,89,,,,,,,,,,,,riccardo,001,2026-04-01_11h08.40.813,attack,,2026.1.2,2026-04-01 11h08.41.000843 +0200,
/Users/jellevanderwerff/workshop_2026/attack_experiment/resources/sequence_onramp_200ms.wav,12,3,3,0,0,3,3,5,,,,,,,,,,57.11886691604741,76,,,,,,,,,,,,riccardo,001,2026-04-01_11h08.40.813,attack,,2026.1.2,2026-04-01 11h08.41.000843 +0200,
/Users/jellevanderwerff/workshop_2026/attack_experiment/resources/sequence_onramp_200ms.wav,12,3,3,0,0,3,3,5,,,,,,,,,,57.6103721660329,65,,,,,,,,,,,,riccardo,001,2026-04-01_11h08.40.813,attack,,2026.1.2,2026-04-01 11h08.41.000843 +0200,
/Users/jellevanderwerff/workshop_2026/attack_experiment/resources/sequence_onramp_200ms.wav,12,3,3,0,0,3,3,5,,,,,,,,,,58.08520850003697,49,,,,,,,,,,,,riccardo,001,2026-04-01_11h08.40.813,attack,,2026.1.2,2026-04-01 11h08.41.000843 +0200,
/Users/jellevanderwerff/workshop_2026/attack_experiment/resources/sequence_onramp_200ms.wav,12,3,3,0,0,3,3,5,,,,,,,,,,58.60184833302628,62,,,,,,,,,,,,riccardo,001,2026-04-01_11h08.40.813,attack,,2026.1.2,2026-04-01 11h08.41.000843 +0200,
/Users/jellevanderwerff/workshop_2026/attack_experiment/resources/sequence_onramp_200ms.wav,12,3,3,0,0,3,3,5,,,,,,,,,,59.06863187503768,66,,,,,,,,,,,,riccardo,001,2026-04-01_11h08.40.813,attack,,2026.1.2,2026-04-01 11h08.41.000843 +0200,
/Users/jellevanderwerff/workshop_2026/attack_experiment/resources/sequence_onramp_200ms.wav,12,3,3,0,0,3,3,5,,,,,,,,,,59.57619987503858,75,,,,,,,,,,,,riccardo,001,2026-04-01_11h08.40.813,attack,,2026.1.2,2026-04-01 11h08.41.000843 +0200,
/Users/jellevanderwerff/workshop_2026/attack_experiment/resources/sequence_onramp_200ms.wav,12,3,3,0,0,3,3,5,,,,,,,,,,60.11039770802017,69,,,,,,,,,,,,riccardo,001,2026-04-01_11h08.40.813,attack,,2026.1.2,2026-04-01 11h08.41.000843 +0200,
/Users/jellevanderwerff/workshop_2026/attack_experiment/resources/sequence_onramp_200ms.wav,12,3,3,0,0,3,3,5,,,,,,,,,,60.626824375009164,89,,,,,,,,,,,,riccardo,001,2026-04-01_11h08.40.813,attack,,2026.1.2,2026-04-01 11h08.41.000843 +0200,
/Users/jellevanderwerff/workshop_2026/attack_experiment/resources/sequence_onramp_200ms.wav,12,3,3,0,0,3,3,5,,,,,,,,,,61.11869375000242,74,,,,,,,,,,,,riccardo,001,2026-04-01_11h08.40.813,attack,,2026.1.2,2026-04-01 11h08.41.000843 +0200,
/Users/jellevanderwerff/workshop_2026/attack_experiment/resources/sequence_onramp_200ms.wav,12,3,3,0,0,3,3,5,,,,,,,,,,61.618177041003946,69,,,,,,,,,,,,riccardo,001,2026-04-01_11h08.40.813,attack,,2026.1.2,2026-04-01 11h08.41.000843 +0200,
/Users/jellevanderwerff/workshop_2026/attack_experiment/resources/sequence_onramp_200ms.wav,12,3,3,0,0,3,3,5,,,,,,,,,,62.12644466600614,67,,,,,,,,,,,,riccardo,001,2026-04-01_11h08.40.813,attack,,2026.1.2,2026-04-01 11h08.41.000843 +0200,
/Users/jellevanderwerff/workshop_2026/attack_experiment/resources/sequence_onramp_200ms.wav,12,3,3,0,0,3,3,5,,,,,,,,,,62.610303207999095,71,,,,,,,,,,,,riccardo,001,2026-04-01_11h08.40.813,attack,,2026.1.2,2026-04-01 11h08.41.000843 +0200,
/Users/jellevanderwerff/workshop_2026/attack_experiment/resources/sequence_onramp_200ms.wav,12,3,3,0,0,3,3,5,,,,,,,,,,63.11020904104225,55,,,,,,,,,,,,riccardo,001,2026-04-01_11h08.40.813,attack,,2026.1.2,2026-04-01 11h08.41.000843 +0200,
/Users/jellevanderwerff/workshop_2026/attack_experiment/resources/sequence_onramp_200ms.wav,12,3,3,0,0,3,3,5,,,,,,,,,,63.61830837500747,67,,,,,,,,,,,,riccardo,001,2026-04-01_11h08.40.813,attack,,2026.1.2,2026-04-01 11h08.41.000843 +0200,
/Users/jellevanderwerff/workshop_2026/attack_experiment/resources/sequence_onramp_200ms.wav,12,3,3,0,0,3,3,5,,,,,,,,,,64.11075920803705,60,,,,,,,,,,,,riccardo,001,2026-04-01_11h08.40.813,attack,,2026.1.2,2026-04-01 11h08.41.000843 +0200,
/Users/jellevanderwerff/workshop_2026/attack_experiment/resources/sequence_onramp_200ms.wav,12,3,3,0,0,3,3,5,,,,,,,,,,64.61888487503165,69,,,,,,,,,,,,riccardo,001,2026-04-01_11h08.40.813,attack,,2026.1.2,2026-04-01 11h08.41.000843 +0200,
/Users/jellevanderwerff/workshop_2026/attack_experiment/resources/sequence_onramp_200ms.wav,12,3,3,0,0,3,3,5,,,,,,,,,,65.12658766604727,83,,,,,,,,,,,,riccardo,001,2026-04-01_11h08.40.813,attack,,2026.1.2,2026-04-01 11h08.41.000843 +0200,
/Users/jellevanderwerff/workshop_2026/attack_experiment/resources/sequence_onramp_200ms.wav,12,3,3,0,0,3,3,5,,,,,,,,,,65.56049629102927,59,,,,,,,,,,,,riccardo,001,2026-04-01_11h08.40.813,attack,,2026.1.2,2026-04-01 11h08.41.000843 +0200,
/Users/jellevanderwerff/workshop_2026/attack_experiment/resources/sequence_onramp_200ms.wav,12,3,3,0,0,3,3,5,,,,,,,,,,66.05191516602645,55,,,,,,,,,,,,riccardo,001,2026-04-01_11h08.40.813,attack,,2026.1.2,2026-04-01 11h08.41.000843 +0200,
/Users/jellevanderwerff/workshop_2026/attack_experiment/resources/sequence_onramp_200ms.wav,12,3,3,0,0,3,3,5,,,,,,,,,,66.63534433301538,72,,,,,,,,,,,,riccardo,001,2026-04-01_11h08.40.813,attack,,2026.1.2,2026-04-01 11h08.41.000843 +0200,
/Users/jellevanderwerff/workshop_2026/attack_experiment/resources/sequence_onramp_200ms.wav,12,3,3,0,0,3,3,5,,,,,,,,,,,,67.09346495801583,67.09346495801583,67.08764233300462,67.08765712502645,67.09346495801583,70.07676783303032,70.0947822080343,,,,,riccardo,001,2026-04-01_11h08.40.813,attack,,2026.1.2,2026-04-01 11h08.41.000843 +0200,
/Users/jellevanderwerff/workshop_2026/attack_experiment/resources/sequence_onramp_50ms.wav,12,4,4,0,0,4,4,2,70.0947822080343,,,,,,70.0890002080123,70.09338579170095,70.0947822080343,70.08907595800702,88,,,,,,,,,,,,riccardo,001,2026-04-01_11h08.40.813,attack,,2026.1.2,2026-04-01 11h08.41.000843 +0200,
/Users/jellevanderwerff/workshop_2026/attack_experiment/resources/sequence_onramp_50ms.wav,12,4,4,0,0,4,4,2,,,,,,,,,,70.41884937504074,44,,,,,,,,,,,,riccardo,001,2026-04-01_11h08.40.813,attack,,2026.1.2,2026-04-01 11h08.41.000843 +0200,
/Users/jellevanderwerff/workshop_2026/attack_experiment/resources/sequence_onramp_50ms.wav,12,4,4,0,0,4,4,2,,,,,,,,,,70.72710262500914,53,,,,,,,,,,,,riccardo,001,2026-04-01_11h08.40.813,attack,,2026.1.2,2026-04-01 11h08.41.000843 +0200,
/Users/jellevanderwerff/workshop_2026/attack_experiment/resources/sequence_onramp_50ms.wav,12,4,4,0,0,4,4,2,,,,,,,,,,71.13541600003373,64,,,,,,,,,,,,riccardo,001,2026-04-01_11h08.40.813,attack,,2026.1.2,2026-04-01 11h08.41.000843 +0200,
/Users/jellevanderwerff/workshop_2026/attack_experiment/resources/sequence_onramp_50ms.wav,12,4,4,0,0,4,4,2,,,,,,,,,,71.5767607500311,94,,,,,,,,,,,,riccardo,001,2026-04-01_11h08.40.813,attack,,2026.1.2,2026-04-01 11h08.41.000843 +0200,
/Users/jellevanderwerff/workshop_2026/attack_experiment/resources/sequence_onramp_50ms.wav,12,4,4,0,0,4,4,2,,,,,,,,,,72.0769184580422,85,,,,,,,,,,,,riccardo,001,2026-04-01_11h08.40.813,attack,,2026.1.2,2026-04-01 11h08.41.000843 +0200,
/Users/jellevanderwerff/workshop_2026/attack_experiment/resources/sequence_onramp_50ms.wav,12,4,4,0,0,4,4,2,,,,,,,,,,72.59383675002027,82,,,,,,,,,,,,riccardo,001,2026-04-01_11h08.40.813,attack,,2026.1.2,2026-04-01 11h08.41.000843 +0200,
/Users/jellevanderwerff/workshop_2026/attack_experiment/resources/sequence_onramp_50ms.wav,12,4,4,0,0,4,4,2,,,,,,,,,,73.09383529104525,94,,,,,,,,,,,,riccardo,001,2026-04-01_11h08.40.813,attack,,2026.1.2,2026-04-01 11h08.41.000843 +0200,
/Users/jellevanderwerff/workshop_2026/attack_experiment/resources/sequence_onramp_50ms.wav,12,4,4,0,0,4,4,2,,,,,,,,,,73.61078845802695,80,,,,,,,,,,,,riccardo,001,2026-04-01_11h08.40.813,attack,,2026.1.2,2026-04-01 11h08.41.000843 +0200,
/Users/jellevanderwerff/workshop_2026/attack_experiment/resources/sequence_onramp_50ms.wav,12,4,4,0,0,4,4,2,,,,,,,,,,74.11039012501715,84,,,,,,,,,,,,riccardo,001,2026-04-01_11h08.40.813,attack,,2026.1.2,2026-04-01 11h08.41.000843 +0200,
/Users/jellevanderwerff/workshop_2026/attack_experiment/resources/sequence_onramp_50ms.wav,12,4,4,0,0,4,4,2,,,,,,,,,,74.60219229100039,77,,,,,,,,,,,,riccardo,001,2026-04-01_11h08.40.813,attack,,2026.1.2,2026-04-01 11h08.41.000843 +0200,
/Users/jellevanderwerff/workshop_2026/attack_experiment/resources/sequence_onramp_50ms.wav,12,4,4,0,0,4,4,2,,,,,,,,,,75.10225483303657,77,,,,,,,,,,,,riccardo,001,2026-04-01_11h08.40.813,attack,,2026.1.2,2026-04-01 11h08.41.000843 +0200,
/Users/jellevanderwerff/workshop_2026/attack_experiment/resources/sequence_onramp_50ms.wav,12,4,4,0,0,4,4,2,,,,,,,,,,75.61052604101133,86,,,,,,,,,,,,riccardo,001,2026-04-01_11h08.40.813,attack,,2026.1.2,2026-04-01 11h08.41.000843 +0200,
/Users/jellevanderwerff/workshop_2026/attack_experiment/resources/sequence_onramp_50ms.wav,12,4,4,0,0,4,4,2,,,,,,,,,,76.10206658300012,89,,,,,,,,,,,,riccardo,001,2026-04-01_11h08.40.813,attack,,2026.1.2,2026-04-01 11h08.41.000843 +0200,
/Users/jellevanderwerff/workshop_2026/attack_experiment/resources/sequence_onramp_50ms.wav,12,4,4,0,0,4,4,2,,,,,,,,,,76.5934020410059,88,,,,,,,,,,,,riccardo,001,2026-04-01_11h08.40.813,attack,,2026.1.2,2026-04-01 11h08.41.000843 +0200,
/Users/jellevanderwerff/workshop_2026/attack_experiment/resources/sequence_onramp_50ms.wav,12,4,4,0,0,4,4,2,,,,,,,,,,77.10224962502252,81,,,,,,,,,,,,riccardo,001,2026-04-01_11h08.40.813,attack,,2026.1.2,2026-04-01 11h08.41.000843 +0200,
/Users/jellevanderwerff/workshop_2026/attack_experiment/resources/sequence_onramp_50ms.wav,12,4,4,0,0,4,4,2,,,,,,,,,,77.61876812501578,78,,,,,,,,,,,,riccardo,001,2026-04-01_11h08.40.813,attack,,2026.1.2,2026-04-01 11h08.41.000843 +0200,
/Users/jellevanderwerff/workshop_2026/attack_experiment/resources/sequence_onramp_50ms.wav,12,4,4,0,0,4,4,2,,,,,,,,,,78.11889325000811,93,,,,,,,,,,,,riccardo,001,2026-04-01_11h08.40.813,attack,,2026.1.2,2026-04-01 11h08.41.000843 +0200,
/Users/jellevanderwerff/workshop_2026/attack_experiment/resources/sequence_onramp_50ms.wav,12,4,4,0,0,4,4,2,,,,,,,,,,78.58571804099483,94,,,,,,,,,,,,riccardo,001,2026-04-01_11h08.40.813,attack,,2026.1.2,2026-04-01 11h08.41.000843 +0200,
/Users/jellevanderwerff/workshop_2026/attack_experiment/resources/sequence_onramp_50ms.wav,12,4,4,0,0,4,4,2,,,,,,,,,,79.0770942910458,87,,,,,,,,,,,,riccardo,001,2026-04-01_11h08.40.813,attack,,2026.1.2,2026-04-01 11h08.41.000843 +0200,
/Users/jellevanderwerff/workshop_2026/attack_experiment/resources/sequence_onramp_50ms.wav,12,4,4,0,0,4,4,2,,,,,,,,,,79.61049033299787,91,,,,,,,,,,,,riccardo,001,2026-04-01_11h08.40.813,attack,,2026.1.2,2026-04-01 11h08.41.000843 +0200,
/Users/jellevanderwerff/workshop_2026/attack_experiment/resources/sequence_onramp_50ms.wav,12,4,4,0,0,4,4,2,,,,,,,,,,80.11887466604821,80,,,,,,,,,,,,riccardo,001,2026-04-01_11h08.40.813,attack,,2026.1.2,2026-04-01 11h08.41.000843 +0200,
/Users/jellevanderwerff/workshop_2026/attack_experiment/resources/sequence_onramp_50ms.wav,12,4,4,0,0,4,4,2,,,,,,,,,,80.60216525004944,89,,,,,,,,,,,,riccardo,001,2026-04-01_11h08.40.813,attack,,2026.1.2,2026-04-01 11h08.41.000843 +0200,
/Users/jellevanderwerff/workshop_2026/attack_experiment/resources/sequence_onramp_50ms.wav,12,4,4,0,0,4,4,2,,,,,,,,,,81.10213587502949,89,,,,,,,,,,,,riccardo,001,2026-04-01_11h08.40.813,attack,,2026.1.2,2026-04-01 11h08.41.000843 +0200,
/Users/jellevanderwerff/workshop_2026/attack_experiment/resources/sequence_onramp_50ms.wav,12,4,4,0,0,4,4,2,,,,,,,,,,81.61051170801511,90,,,,,,,,,,,,riccardo,001,2026-04-01_11h08.40.813,attack,,2026.1.2,2026-04-01 11h08.41.000843 +0200,
/Users/jellevanderwerff/workshop_2026/attack_experiment/resources/sequence_onramp_50ms.wav,12,4,4,0,0,4,4,2,,,,,,,,,,,,82.09631950000767,82.09631950000767,82.09043587499764,82.09044941602042,82.09631950000767,85.08533537504263,85.10122104099719,,,,,riccardo,001,2026-04-01_11h08.40.813,attack,,2026.1.2,2026-04-01 11h08.41.000843 +0200,
/Users/jellevanderwerff/workshop_2026/attack_experiment/resources/sequence_onramp_20ms.wav,12,5,5,0,0,5,5,1,85.10122104099719,,,,,,85.09715458302526,85.10195812466942,85.10122104099719,85.0972304160241,93,,,,,,,,,,,,riccardo,001,2026-04-01_11h08.40.813,attack,,2026.1.2,2026-04-01 11h08.41.000843 +0200,
/Users/jellevanderwerff/workshop_2026/attack_experiment/resources/sequence_onramp_20ms.wav,12,5,5,0,0,5,5,1,,,,,,,,,,85.36884508299408,42,,,,,,,,,,,,riccardo,001,2026-04-01_11h08.40.813,attack,,2026.1.2,2026-04-01 11h08.41.000843 +0200,
/Users/jellevanderwerff/workshop_2026/attack_experiment/resources/sequence_onramp_20ms.wav,12,5,5,0,0,5,5,1,,,,,,,,,,85.69275466602994,25,,,,,,,,,,,,riccardo,001,2026-04-01_11h08.40.813,attack,,2026.1.2,2026-04-01 11h08.41.000843 +0200,
/Users/jellevanderwerff/workshop_2026/attack_experiment/resources/sequence_onramp_20ms.wav,12,5,5,0,0,5,5,1,,,,,,,,,,86.0936576660024,64,,,,,,,,,,,,riccardo,001,2026-04-01_11h08.40.813,attack,,2026.1.2,2026-04-01 11h08.41.000843 +0200,
/Users/jellevanderwerff/workshop_2026/attack_experiment/resources/sequence_onramp_20ms.wav,12,5,5,0,0,5,5,1,,,,,,,,,,86.56818150001345,94,,,,,,,,,,,,riccardo,001,2026-04-01_11h08.40.813,attack,,2026.1.2,2026-04-01 11h08.41.000843 +0200,
/Users/jellevanderwerff/workshop_2026/attack_experiment/resources/sequence_onramp_20ms.wav,12,5,5,0,0,5,5,1,,,,,,,,,,87.07716158300173,91,,,,,,,,,,,,riccardo,001,2026-04-01_11h08.40.813,attack,,2026.1.2,2026-04-01 11h08.41.000843 +0200,
/Users/jellevanderwerff/workshop_2026/attack_experiment/resources/sequence_onramp_20ms.wav,12,5,5,0,0,5,5,1,,,,,,,,,,87.58510237501469,95,,,,,,,,,,,,riccardo,001,2026-04-01_11h08.40.813,attack,,2026.1.2,2026-04-01 11h08.41.000843 +0200,
/Users/jellevanderwerff/workshop_2026/attack_experiment/resources/sequence_onramp_20ms.wav,12,5,5,0,0,5,5,1,,,,,,,,,,88.10212454100838,82,,,,,,,,,,,,riccardo,001,2026-04-01_11h08.40.813,attack,,2026.1.2,2026-04-01 11h08.41.000843 +0200,
/Users/jellevanderwerff/workshop_2026/attack_experiment/resources/sequence_onramp_20ms.wav,12,5,5,0,0,5,5,1,,,,,,,,,,88.60108400002355,84,,,,,,,,,,,,riccardo,001,2026-04-01_11h08.40.813,attack,,2026.1.2,2026-04-01 11h08.41.000843 +0200,
/Users/jellevanderwerff/workshop_2026/attack_experiment/resources/sequence_onramp_20ms.wav,12,5,5,0,0,5,5,1,,,,,,,,,,89.08536991599249,74,,,,,,,,,,,,riccardo,001,2026-04-01_11h08.40.813,attack,,2026.1.2,2026-04-01 11h08.41.000843 +0200,
/Users/jellevanderwerff/workshop_2026/attack_experiment/resources/sequence_onramp_20ms.wav,12,5,5,0,0,5,5,1,,,,,,,,,,89.58435504103545,88,,,,,,,,,,,,riccardo,001,2026-04-01_11h08.40.813,attack,,2026.1.2,2026-04-01 11h08.41.000843 +0200,
/Users/jellevanderwerff/workshop_2026/attack_experiment/resources/sequence_onramp_20ms.wav,12,5,5,0,0,5,5,1,,,,,,,,,,90.09366966603557,87,,,,,,,,,,,,riccardo,001,2026-04-01_11h08.40.813,attack,,2026.1.2,2026-04-01 11h08.41.000843 +0200,
/Users/jellevanderwerff/workshop_2026/attack_experiment/resources/sequence_onramp_20ms.wav,12,5,5,0,0,5,5,1,,,,,,,,,,90.60167483304394,89,,,,,,,,,,,,riccardo,001,2026-04-01_11h08.40.813,attack,,2026.1.2,2026-04-01 11h08.41.000843 +0200,
/Users/jellevanderwerff/workshop_2026/attack_experiment/resources/sequence_onramp_20ms.wav,12,5,5,0,0,5,5,1,,,,,,,,,,91.11016095802188,84,,,,,,,,,,,,riccardo,001,2026-04-01_11h08.40.813,attack,,2026.1.2,2026-04-01 11h08.41.000843 +0200,
/Users/jellevanderwerff/workshop_2026/attack_experiment/resources/sequence_onramp_20ms.wav,12,5,5,0,0,5,5,1,,,,,,,,,,91.61777258303482,83,,,,,,,,,,,,riccardo,001,2026-04-01_11h08.40.813,attack,,2026.1.2,2026-04-01 11h08.41.000843 +0200,
/Users/jellevanderwerff/workshop_2026/attack_experiment/resources/sequence_onramp_20ms.wav,12,5,5,0,0,5,5,1,,,,,,,,,,92.1011177500477,82,,,,,,,,,,,,riccardo,001,2026-04-01_11h08.40.813,attack,,2026.1.2,2026-04-01 11h08.41.000843 +0200,
/Users/jellevanderwerff/workshop_2026/attack_experiment/resources/sequence_onramp_20ms.wav,12,5,5,0,0,5,5,1,,,,,,,,,,92.60141100001056,89,,,,,,,,,,,,riccardo,001,2026-04-01_11h08.40.813,attack,,2026.1.2,2026-04-01 11h08.41.000843 +0200,
/Users/jellevanderwerff/workshop_2026/attack_experiment/resources/sequence_onramp_20ms.wav,12,5,5,0,0,5,5,1,,,,,,,,,,93.08499587501865,87,,,,,,,,,,,,riccardo,001,2026-04-01_11h08.40.813,attack,,2026.1.2,2026-04-01 11h08.41.000843 +0200,
/Users/jellevanderwerff/workshop_2026/attack_experiment/resources/sequence_onramp_20ms.wav,12,5,5,0,0,5,5,1,,,,,,,,,,93.59300620801514,88,,,,,,,,,,,,riccardo,001,2026-04-01_11h08.40.813,attack,,2026.1.2,2026-04-01 11h08.41.000843 +0200,
/Users/jellevanderwerff/workshop_2026/attack_experiment/resources/sequence_onramp_20ms.wav,12,5,5,0,0,5,5,1,,,,,,,,,,94.10162650002167,84,,,,,,,,,,,,riccardo,001,2026-04-01_11h08.40.813,attack,,2026.1.2,2026-04-01 11h08.41.000843 +0200,
/Users/jellevanderwerff/workshop_2026/attack_experiment/resources/sequence_onramp_20ms.wav,12,5,5,0,0,5,5,1,,,,,,,,,,94.59270583302714,79,,,,,,,,,,,,riccardo,001,2026-04-01_11h08.40.813,attack,,2026.1.2,2026-04-01 11h08.41.000843 +0200,
/Users/jellevanderwerff/workshop_2026/attack_experiment/resources/sequence_onramp_20ms.wav,12,5,5,0,0,5,5,1,,,,,,,,,,95.08471275004558,82,,,,,,,,,,,,riccardo,001,2026-04-01_11h08.40.813,attack,,2026.1.2,2026-04-01 11h08.41.000843 +0200,
/Users/jellevanderwerff/workshop_2026/attack_experiment/resources/sequence_onramp_20ms.wav,12,5,5,0,0,5,5,1,,,,,,,,,,95.60214616602752,88,,,,,,,,,,,,riccardo,001,2026-04-01_11h08.40.813,attack,,2026.1.2,2026-04-01 11h08.41.000843 +0200,
/Users/jellevanderwerff/workshop_2026/attack_experiment/resources/sequence_onramp_20ms.wav,12,5,5,0,0,5,5,1,,,,,,,,,,96.10997754102573,80,,,,,,,,,,,,riccardo,001,2026-04-01_11h08.40.813,attack,,2026.1.2,2026-04-01 11h08.41.000843 +0200,
/Users/jellevanderwerff/workshop_2026/attack_experiment/resources/sequence_onramp_20ms.wav,12,5,5,0,0,5,5,1,,,,,,,,,,96.59376083302777,86,,,,,,,,,,,,riccardo,001,2026-04-01_11h08.40.813,attack,,2026.1.2,2026-04-01 11h08.41.000843 +0200,
/Users/jellevanderwerff/workshop_2026/attack_experiment/resources/sequence_onramp_20ms.wav,12,5,5,0,0,5,5,1,,,,,,,,,,97.09942812501686,79,97.11037650000071,97.11037650000071,,,,,,,,,,riccardo,001,2026-04-01_11h08.40.813,attack,,2026.1.2,2026-04-01 11h08.41.000843 +0200,
/Users/jellevanderwerff/workshop_2026/attack_experiment/resources/sequence_onramp_20ms.wav,12,5,5,0,0,5,5,1,,,,,,,,,,,,,,97.09945708303712,97.09946858300827,97.11037650000071,100.09375075000571,100.10185033304151,,,,,riccardo,001,2026-04-01_11h08.40.813,attack,,2026.1.2,2026-04-01 11h08.41.000843 +0200,
,,,,,,,,,,,,,,,,,,,,,,,,,,,100.09378791600466,100.10185033304151,101.09359741600929,101.08546770800604,riccardo,001,2026-04-01_11h08.40.813,attack,,2026.1.2,2026-04-01 11h08.41.000843 +0200,
